{
  "OID": "MDV.LZZT - Pilot.Version1.Design1",
  "name": "MDV LZZT - Pilot",
  "description": "Data Definitions for LZZT - Pilot",
  "fileOID": "ODM.DEFINE-JSON.LZZT - Pilot.Version1.Design1",
  "creationDateTime": "2026-07-16T11:33:00.031383+00:00",
  "odmVersion": "1.3.2",
  "fileType": "Snapshot",
  "originator": "Define-JSON Processor",
  "context": "Other",
  "defineVersion": "2.1.0",
  "studyOID": "ODM.LZZT - Pilot.Version1.Design1",
  "studyName": "LZZT - Pilot",
  "studyDescription": "Safety and Efficacy of the Xanomeline Transdermal Therapeutic System (TTS) in Patients with Mild to Moderate Alzheimer's Disease",
  "protocolName": "LZZT - Pilot",
  "itemGroups": [
    {
      "OID": "IG.DS",
      "name": "DS",
      "description": "Disposition",
      "domain": "DS",
      "purpose": "Tabulation",
      "structure": "One record per disposition status or protocol milestone per subject",
      "isReferenceData": false,
      "keySequence": [
        "STUDYID",
        "USUBJID",
        "DSSEQ"
      ],
      "standard": "STD.SDTMIG",
      "observationClass": {
        "name": "EVENTS"
      },
      "items": [
        {
          "OID": "IT.DS.STUDYID",
          "mandatory": true,
          "name": "STUDYID",
          "description": "Study Identifier",
          "role": "Identifier",
          "dataType": "text",
          "length": null,
          "origin": {
            "type": "Assigned",
            "source": "Sponsor"
          }
        },
        {
          "OID": "IT.DS.DOMAIN",
          "mandatory": true,
          "name": "DOMAIN",
          "description": "Domain Abbreviation",
          "role": "Identifier",
          "dataType": "text",
          "length": null,
          "origin": {
            "type": "Assigned",
            "source": "Sponsor"
          }
        },
        {
          "OID": "IT.DS.USUBJID",
          "mandatory": true,
          "name": "USUBJID",
          "description": "Unique Subject Identifier",
          "role": "Identifier",
          "dataType": "text",
          "length": null,
          "origin": {
            "type": "Assigned",
            "source": "Sponsor"
          }
        },
        {
          "OID": "IT.DS.DSSEQ",
          "mandatory": true,
          "name": "DSSEQ",
          "description": "Sequence Number",
          "role": "Identifier",
          "dataType": "integer",
          "length": null,
          "origin": {
            "type": "Derived",
            "source": "Sponsor"
          }
        },
        {
          "OID": "IT.DS.DSTERM",
          "mandatory": true,
          "name": "DSTERM",
          "description": "Reported Term for the Disposition Event",
          "role": "Topic",
          "conceptProperty": "CONCPROP.BiomedicalConceptProperty_2",
          "dataType": "text",
          "length": 200,
          "origin": {
            "type": "Collected",
            "source": "Investigator"
          }
        },
        {
          "OID": "IT.DS.DSDECOD",
          "mandatory": true,
          "name": "DSDECOD",
          "description": "Standardized Disposition Term",
          "role": "Synonym Qualifier",
          "conceptProperty": "CONCPROP.BiomedicalConceptProperty_1",
          "dataType": "text",
          "length": 200,
          "origin": {
            "type": "Assigned",
            "source": "Sponsor"
          },
          "codeList": "CL.NCOMPLT"
        },
        {
          "OID": "IT.DS.DSCAT",
          "mandatory": false,
          "name": "DSCAT",
          "description": "Category for Disposition Event",
          "role": "Grouping Qualifier",
          "dataType": "text",
          "length": 200,
          "origin": {
            "type": "Assigned",
            "source": "Sponsor"
          },
          "codeList": "CL.DSCAT"
        },
        {
          "OID": "IT.DS.DSSCAT",
          "mandatory": false,
          "name": "DSSCAT",
          "description": "Subcategory for Disposition Event",
          "role": "Grouping Qualifier",
          "dataType": "text",
          "length": 200,
          "origin": {
            "type": "Assigned",
            "source": "Sponsor"
          },
          "codeList": "CL.DSSCAT"
        },
        {
          "OID": "IT.DS.DSSTDTC",
          "mandatory": false,
          "name": "DSSTDTC",
          "description": "Start Date/Time of Disposition Event",
          "role": "Timing",
          "conceptProperty": "CONCPROP.BiomedicalConceptProperty_3",
          "dataType": "datetime",
          "origin": {
            "type": "Collected",
            "source": "Investigator"
          }
        },
        {
          "OID": "IT.DS.DSSTDY",
          "mandatory": false,
          "name": "DSSTDY",
          "description": "Study Day of Start of Disposition Event",
          "role": "Timing",
          "dataType": "integer",
          "length": null,
          "origin": {
            "type": "Derived",
            "source": "Sponsor"
          }
        }
      ],
      "implementsConcept": "CONC.BiomedicalConcept_1"
    },
    {
      "OID": "IG.IE",
      "name": "IE",
      "description": "Inclusion/Exclusion Criteria Not Met",
      "domain": "IE",
      "purpose": "Tabulation",
      "structure": "One record per inclusion/exclusion criterion not met per subject",
      "isReferenceData": false,
      "keySequence": [
        "STUDYID",
        "USUBJID",
        "IESEQ"
      ],
      "standard": "STD.SDTMIG",
      "observationClass": {
        "name": "FINDINGS"
      },
      "items": [
        {
          "OID": "IT.IE.STUDYID",
          "mandatory": true,
          "name": "STUDYID",
          "description": "Study Identifier",
          "role": "Identifier",
          "dataType": "text",
          "length": null,
          "origin": {
            "type": "Assigned",
            "source": "Sponsor"
          }
        },
        {
          "OID": "IT.IE.DOMAIN",
          "mandatory": true,
          "name": "DOMAIN",
          "description": "Domain Abbreviation",
          "role": "Identifier",
          "dataType": "text",
          "length": null,
          "origin": {
            "type": "Assigned",
            "source": "Sponsor"
          }
        },
        {
          "OID": "IT.IE.USUBJID",
          "mandatory": true,
          "name": "USUBJID",
          "description": "Unique Subject Identifier",
          "role": "Identifier",
          "dataType": "text",
          "length": null,
          "origin": {
            "type": "Assigned",
            "source": "Sponsor"
          }
        },
        {
          "OID": "IT.IE.IESEQ",
          "mandatory": true,
          "name": "IESEQ",
          "description": "Sequence Number",
          "role": "Identifier",
          "dataType": "integer",
          "length": null,
          "origin": {
            "type": "Derived",
            "source": "Sponsor"
          }
        },
        {
          "OID": "IT.IE.IETESTCD",
          "mandatory": true,
          "name": "IETESTCD",
          "description": "Inclusion/Exclusion Criterion Short Name",
          "role": "Topic",
          "dataType": "text",
          "length": null,
          "origin": {
            "type": "Assigned",
            "source": "Sponsor"
          }
        },
        {
          "OID": "IT.IE.IETEST",
          "mandatory": true,
          "name": "IETEST",
          "description": "Inclusion/Exclusion Criterion",
          "role": "Synonym Qualifier",
          "dataType": "text",
          "length": null,
          "origin": {
            "type": "Assigned",
            "source": "Sponsor"
          }
        },
        {
          "OID": "IT.IE.IECAT",
          "mandatory": true,
          "name": "IECAT",
          "description": "Inclusion/Exclusion Category",
          "role": "Grouping Qualifier",
          "dataType": "text",
          "length": null,
          "origin": {
            "type": "Assigned",
            "source": "Sponsor"
          },
          "codeList": "CL.IECAT"
        },
        {
          "OID": "IT.IE.IEORRES",
          "mandatory": true,
          "name": "IEORRES",
          "description": "I/E Criterion Original Result",
          "role": "Result Qualifier",
          "conceptProperty": "CONCPROP.BiomedicalConceptProperty_5",
          "dataType": "text",
          "length": 1,
          "origin": {
            "type": "Collected",
            "source": "Investigator"
          },
          "codeList": "CL.NY"
        },
        {
          "OID": "IT.IE.IESTRESC",
          "mandatory": true,
          "name": "IESTRESC",
          "description": "I/E Criterion Result in Std Format",
          "role": "Result Qualifier",
          "dataType": "text",
          "length": 1,
          "origin": {
            "type": "Derived",
            "source": "Sponsor"
          },
          "codeList": "CL.NY"
        },
        {
          "OID": "IT.IE.IEDTC",
          "mandatory": false,
          "name": "IEDTC",
          "description": "Date/Time of Collection",
          "role": "Timing",
          "conceptProperty": "CONCPROP.BiomedicalConceptProperty_6",
          "dataType": "datetime",
          "origin": {
            "type": "Collected",
            "source": "Investigator"
          }
        }
      ],
      "implementsConcept": "CONC.BiomedicalConcept_2"
    },
    {
      "OID": "IG.SC",
      "name": "SC",
      "description": "Subject Characteristics",
      "domain": "SC",
      "purpose": "Tabulation",
      "structure": "One record per characteristic per visit per subject.",
      "isReferenceData": false,
      "keySequence": [
        "STUDYID",
        "USUBJID",
        "SCSEQ"
      ],
      "standard": "STD.SDTMIG",
      "observationClass": {
        "name": "FINDINGS"
      },
      "items": [
        {
          "OID": "IT.SC.STUDYID",
          "mandatory": true,
          "name": "STUDYID",
          "description": "Study Identifier",
          "role": "Identifier",
          "dataType": "text",
          "length": null,
          "origin": {
            "type": "Assigned",
            "source": "Sponsor"
          }
        },
        {
          "OID": "IT.SC.DOMAIN",
          "mandatory": true,
          "name": "DOMAIN",
          "description": "Domain Abbreviation",
          "role": "Identifier",
          "dataType": "text",
          "length": null,
          "origin": {
            "type": "Assigned",
            "source": "Sponsor"
          }
        },
        {
          "OID": "IT.SC.USUBJID",
          "mandatory": true,
          "name": "USUBJID",
          "description": "Unique Subject Identifier",
          "role": "Identifier",
          "dataType": "text",
          "length": null,
          "origin": {
            "type": "Assigned",
            "source": "Sponsor"
          }
        },
        {
          "OID": "IT.SC.SCSEQ",
          "mandatory": true,
          "name": "SCSEQ",
          "description": "Sequence Number",
          "role": "Identifier",
          "dataType": "integer",
          "length": null,
          "origin": {
            "type": "Derived",
            "source": "Sponsor"
          }
        },
        {
          "OID": "IT.SC.SCTESTCD",
          "mandatory": true,
          "name": "SCTESTCD",
          "description": "Subject Characteristic Short Name",
          "role": "Topic",
          "dataType": "text",
          "length": null,
          "origin": {
            "type": "Assigned",
            "source": "Sponsor"
          },
          "codeList": "CL.SCTESTCD"
        },
        {
          "OID": "IT.SC.SCTEST",
          "mandatory": true,
          "name": "SCTEST",
          "description": "Subject Characteristic",
          "role": "Synonym Qualifier",
          "dataType": "text",
          "length": null,
          "origin": {
            "type": "Assigned",
            "source": "Sponsor"
          },
          "codeList": "CL.SCTEST"
        },
        {
          "OID": "IT.SC.SCCAT",
          "mandatory": false,
          "name": "SCCAT",
          "description": "Category for Subject Characteristic",
          "role": "Grouping Qualifier",
          "dataType": "text",
          "length": null,
          "origin": {
            "type": "Assigned",
            "source": "Sponsor"
          }
        },
        {
          "OID": "IT.SC.SCORRES",
          "mandatory": false,
          "name": "SCORRES",
          "description": "Result or Finding in Original Units",
          "role": "Result Qualifier",
          "conceptProperty": "CONCPROP.BiomedicalConceptProperty_26",
          "dataType": "text",
          "length": 200,
          "origin": {
            "type": "Collected",
            "source": "Investigator"
          }
        },
        {
          "OID": "IT.SC.SCSTRESC",
          "mandatory": false,
          "name": "SCSTRESC",
          "description": "Character Result/Finding in Std Format",
          "role": "Result Qualifier",
          "dataType": "text",
          "length": 200,
          "origin": {
            "type": "Derived",
            "source": "Sponsor"
          }
        },
        {
          "OID": "IT.SC.SCSTRESN",
          "mandatory": false,
          "name": "SCSTRESN",
          "description": "Numeric Result/Finding in Standard Units",
          "role": "Result Qualifier",
          "dataType": "integer",
          "length": 2,
          "origin": {
            "type": "Derived",
            "source": "Sponsor"
          }
        },
        {
          "OID": "IT.SC.SCDTC",
          "mandatory": false,
          "name": "SCDTC",
          "description": "Date/Time of Collection",
          "role": "Timing",
          "conceptProperty": "CONCPROP.BiomedicalConceptProperty_27",
          "dataType": "datetime",
          "origin": {
            "type": "Collected",
            "source": "Sponsor"
          }
        }
      ],
      "implementsConcept": "CONC.BiomedicalConcept_11"
    },
    {
      "OID": "IG.MH",
      "name": "MH",
      "description": "Medical History",
      "domain": "MH",
      "purpose": "Tabulation",
      "structure": "One record per medical history event per subject",
      "isReferenceData": false,
      "keySequence": [
        "STUDYID",
        "USUBJID",
        "MHSEQ"
      ],
      "standard": "STD.SDTMIG",
      "observationClass": {
        "name": "EVENTS"
      },
      "items": [
        {
          "OID": "IT.MH.STUDYID",
          "mandatory": true,
          "name": "STUDYID",
          "description": "Study Identifier",
          "role": "Identifier",
          "dataType": "text",
          "length": null,
          "origin": {
            "type": "Assigned",
            "source": "Sponsor"
          }
        },
        {
          "OID": "IT.MH.DOMAIN",
          "mandatory": true,
          "name": "DOMAIN",
          "description": "Domain Abbreviation",
          "role": "Identifier",
          "dataType": "text",
          "length": null,
          "origin": {
            "type": "Assigned",
            "source": "Sponsor"
          }
        },
        {
          "OID": "IT.MH.USUBJID",
          "mandatory": true,
          "name": "USUBJID",
          "description": "Unique Subject Identifier",
          "role": "Identifier",
          "dataType": "text",
          "length": null,
          "origin": {
            "type": "Assigned",
            "source": "Sponsor"
          }
        },
        {
          "OID": "IT.MH.MHSEQ",
          "mandatory": true,
          "name": "MHSEQ",
          "description": "Sequence Number",
          "role": "Identifier",
          "dataType": "integer",
          "length": null,
          "origin": {
            "type": "Derived",
            "source": "Sponsor"
          }
        },
        {
          "OID": "IT.MH.MHTERM",
          "mandatory": true,
          "name": "MHTERM",
          "description": "Reported Term for the Medical History",
          "role": "Topic",
          "conceptProperty": "CONCPROP.BiomedicalConceptProperty_30",
          "dataType": "text",
          "length": 200,
          "origin": {
            "type": "Collected",
            "source": "Investigator"
          }
        },
        {
          "OID": "IT.MH.MHDECOD",
          "mandatory": false,
          "name": "MHDECOD",
          "description": "Dictionary-Derived Term",
          "role": "Synonym Qualifier",
          "conceptProperty": "CONCPROP.BiomedicalConceptProperty_31",
          "dataType": "text",
          "length": 200,
          "origin": {
            "type": "Assigned",
            "source": "Sponsor"
          }
        },
        {
          "OID": "IT.MH.MHCAT",
          "mandatory": false,
          "name": "MHCAT",
          "description": "Category for Medical History",
          "role": "Grouping Qualifier",
          "dataType": "text",
          "length": 200,
          "origin": {
            "type": "Assigned",
            "source": "Sponsor"
          }
        },
        {
          "OID": "IT.MH.MHSCAT",
          "mandatory": false,
          "name": "MHSCAT",
          "description": "Subcategory for Medical History",
          "role": "Grouping Qualifier",
          "dataType": "text",
          "length": 200,
          "origin": {
            "type": "Assigned",
            "source": "Sponsor"
          }
        },
        {
          "OID": "IT.MH.MHPRESP",
          "mandatory": false,
          "name": "MHPRESP",
          "description": "Medical History Event Pre-Specified",
          "role": "Variable Qualifier",
          "dataType": "text",
          "length": 1,
          "origin": {
            "type": "Assigned",
            "source": "Sponsor"
          },
          "codeList": "CL.NY"
        },
        {
          "OID": "IT.MH.MHOCCUR",
          "mandatory": false,
          "name": "MHOCCUR",
          "description": "Medical History Occurrence",
          "role": "Record Qualifier",
          "dataType": "text",
          "length": 1,
          "origin": {
            "type": "Collected",
            "source": "Investigator"
          },
          "codeList": "CL.NY"
        },
        {
          "OID": "IT.MH.MHSTDTC",
          "mandatory": false,
          "name": "MHSTDTC",
          "description": "Start Date/Time of Medical History Event",
          "role": "Timing",
          "conceptProperty": "CONCPROP.BiomedicalConceptProperty_32",
          "dataType": "datetime",
          "origin": {
            "type": "Collected",
            "source": "Investigator"
          }
        },
        {
          "OID": "IT.MH.MHENDTC",
          "mandatory": false,
          "name": "MHENDTC",
          "description": "End Date/Time of Medical History Event",
          "role": "Timing",
          "conceptProperty": "CONCPROP.BiomedicalConceptProperty_33",
          "dataType": "datetime",
          "origin": {
            "type": "Collected",
            "source": "Investigator"
          }
        },
        {
          "OID": "IT.MH.MHENRF",
          "mandatory": false,
          "name": "MHENRF",
          "description": "End Relative to Reference Period",
          "role": "Timing",
          "conceptProperty": "CONCPROP.BiomedicalConceptProperty_34",
          "dataType": "text",
          "length": 20,
          "origin": {
            "type": "Assigned",
            "source": "Sponsor"
          },
          "codeList": "CL.STENRF"
        },
        {
          "OID": "IT.MH.MHENRTPT",
          "mandatory": false,
          "name": "MHENRTPT",
          "description": "End Relative to Reference Time Point",
          "role": "Timing",
          "conceptProperty": "CONCPROP.BiomedicalConceptProperty_35",
          "dataType": "text",
          "length": 20,
          "origin": {
            "type": "Assigned",
            "source": "Sponsor"
          },
          "codeList": "CL.STENRF"
        },
        {
          "OID": "IT.MH.MHENTPT",
          "mandatory": false,
          "name": "MHENTPT",
          "description": "End Reference Time Point",
          "role": "Timing",
          "conceptProperty": "CONCPROP.BiomedicalConceptProperty_36",
          "dataType": "text",
          "length": 20,
          "origin": {
            "type": "Assigned",
            "source": "Sponsor"
          }
        }
      ],
      "implementsConcept": "CONC.BiomedicalConcept_14"
    },
    {
      "OID": "IG.SU",
      "name": "SU",
      "description": "Substance Use",
      "domain": "SU",
      "purpose": "Tabulation",
      "structure": "One record per substance type per reported occurrence per subject",
      "isReferenceData": false,
      "keySequence": [
        "STUDYID",
        "USUBJID",
        "SUSEQ"
      ],
      "standard": "STD.SDTMIG",
      "observationClass": {
        "name": "INTERVENTIONS"
      },
      "items": [
        {
          "OID": "IT.SU.STUDYID",
          "mandatory": true,
          "name": "STUDYID",
          "description": "Study Identifier",
          "role": "Identifier",
          "dataType": "text",
          "length": null,
          "origin": {
            "type": "Assigned",
            "source": "Sponsor"
          }
        },
        {
          "OID": "IT.SU.DOMAIN",
          "mandatory": true,
          "name": "DOMAIN",
          "description": "Domain Abbreviation",
          "role": "Identifier",
          "dataType": "text",
          "length": null,
          "origin": {
            "type": "Assigned",
            "source": "Sponsor"
          }
        },
        {
          "OID": "IT.SU.USUBJID",
          "mandatory": true,
          "name": "USUBJID",
          "description": "Unique Subject Identifier",
          "role": "Identifier",
          "dataType": "text",
          "length": null,
          "origin": {
            "type": "Assigned",
            "source": "Sponsor"
          }
        },
        {
          "OID": "IT.SU.SUSEQ",
          "mandatory": true,
          "name": "SUSEQ",
          "description": "Sequence Number",
          "role": "Identifier",
          "dataType": "integer",
          "length": null,
          "origin": {
            "type": "Derived",
            "source": "Sponsor"
          }
        },
        {
          "OID": "IT.SU.SUTRT",
          "mandatory": true,
          "name": "SUTRT",
          "description": "Reported Name of Substance",
          "role": "Topic",
          "conceptProperty": "CONCPROP.BiomedicalConceptProperty_37",
          "dataType": "text",
          "length": 200,
          "origin": {
            "type": "Collected",
            "source": "Investigator"
          }
        },
        {
          "OID": "IT.SU.SUCAT",
          "mandatory": false,
          "name": "SUCAT",
          "description": "Category for Substance Use",
          "role": "Grouping Qualifier",
          "dataType": "text",
          "length": 200,
          "origin": {
            "type": "Assigned",
            "source": "Sponsor"
          }
        },
        {
          "OID": "IT.SU.SUSCAT",
          "mandatory": false,
          "name": "SUSCAT",
          "description": "Subcategory for Substance Use",
          "role": "Grouping Qualifier",
          "dataType": "text",
          "length": 200,
          "origin": {
            "type": "Assigned",
            "source": "Sponsor"
          }
        },
        {
          "OID": "IT.SU.SUPRESP",
          "mandatory": false,
          "name": "SUPRESP",
          "description": "SU Pre-Specified",
          "role": "Variable Qualifier",
          "conceptProperty": "CONCPROP.BiomedicalConceptProperty_38",
          "dataType": "text",
          "length": 1,
          "origin": {
            "type": "Assigned",
            "source": "Sponsor"
          },
          "codeList": "CL.NY_Y"
        },
        {
          "OID": "IT.SU.SUOCCUR",
          "mandatory": false,
          "name": "SUOCCUR",
          "description": "SU Occurrence",
          "role": "Record Qualifier",
          "conceptProperty": "CONCPROP.BiomedicalConceptProperty_39",
          "dataType": "text",
          "length": 1,
          "origin": {
            "type": "Collected",
            "source": "Investigator"
          },
          "codeList": "CL.NY_NY"
        },
        {
          "OID": "IT.SU.SUDOSE",
          "mandatory": false,
          "name": "SUDOSE",
          "description": "Substance Use Consumption",
          "role": "Record Qualifier",
          "conceptProperty": "CONCPROP.BiomedicalConceptProperty_40",
          "dataType": "float",
          "length": 12,
          "displayFormat": "12.4",
          "significantDigits": 4,
          "origin": {
            "type": "Collected",
            "source": "Investigator"
          }
        },
        {
          "OID": "IT.SU.SUDOSTXT",
          "mandatory": false,
          "name": "SUDOSTXT",
          "description": "Substance Use Consumption Text",
          "role": "Record Qualifier",
          "conceptProperty": "CONCPROP.BiomedicalConceptProperty_41",
          "dataType": "text",
          "length": 40,
          "origin": {
            "type": "Collected",
            "source": "Investigator"
          }
        },
        {
          "OID": "IT.SU.SUDOSU",
          "mandatory": false,
          "name": "SUDOSU",
          "description": "Consumption Units",
          "role": "Variable Qualifier",
          "conceptProperty": "CONCPROP.BiomedicalConceptProperty_42",
          "dataType": "text",
          "length": 40,
          "origin": {
            "type": "Collected",
            "source": "Investigator"
          },
          "codeList": "CL.UNIT"
        },
        {
          "OID": "IT.SU.SUDOSFRQ",
          "mandatory": false,
          "name": "SUDOSFRQ",
          "description": "Use Frequency Per Interval",
          "role": "Variable Qualifier",
          "conceptProperty": "CONCPROP.BiomedicalConceptProperty_43",
          "dataType": "text",
          "length": 40,
          "origin": {
            "type": "Collected",
            "source": "Investigator"
          },
          "codeList": "CL.FREQ"
        },
        {
          "OID": "IT.SU.SUSTDTC",
          "mandatory": false,
          "name": "SUSTDTC",
          "description": "Start Date/Time of Substance Use",
          "role": "Timing",
          "conceptProperty": "CONCPROP.BiomedicalConceptProperty_44",
          "dataType": "datetime",
          "origin": {
            "type": "Collected",
            "source": "Investigator"
          }
        },
        {
          "OID": "IT.SU.SUENDTC",
          "mandatory": false,
          "name": "SUENDTC",
          "description": "End Date/Time of Substance Use",
          "role": "Timing",
          "conceptProperty": "CONCPROP.BiomedicalConceptProperty_45",
          "dataType": "datetime",
          "origin": {
            "type": "Collected",
            "source": "Investigator"
          }
        },
        {
          "OID": "IT.SU.SUDUR",
          "mandatory": false,
          "name": "SUDUR",
          "description": "Duration of Substance Use",
          "role": "Timing",
          "dataType": "durationDatetime",
          "origin": {
            "type": "Collected",
            "source": "Investigator"
          }
        },
        {
          "OID": "IT.SU.SUSTRF",
          "mandatory": false,
          "name": "SUSTRF",
          "description": "Start Relative to Reference Period",
          "role": "Timing",
          "conceptProperty": "CONCPROP.BiomedicalConceptProperty_46",
          "dataType": "text",
          "length": 20,
          "origin": {
            "type": "Assigned",
            "source": "Sponsor"
          },
          "codeList": "CL.STENRF"
        },
        {
          "OID": "IT.SU.SUENRF",
          "mandatory": false,
          "name": "SUENRF",
          "description": "End Relative to Reference Period",
          "role": "Timing",
          "conceptProperty": "CONCPROP.BiomedicalConceptProperty_49",
          "dataType": "text",
          "length": 20,
          "origin": {
            "type": "Assigned",
            "source": "Sponsor"
          },
          "codeList": "CL.STENRF"
        },
        {
          "OID": "IT.SU.SUSTRTPT",
          "mandatory": false,
          "name": "SUSTRTPT",
          "description": "Start Relative to Reference Time Point",
          "role": "Timing",
          "conceptProperty": "CONCPROP.BiomedicalConceptProperty_47",
          "dataType": "text",
          "length": 20,
          "origin": {
            "type": "Assigned",
            "source": "Sponsor"
          },
          "codeList": "CL.STENRF"
        },
        {
          "OID": "IT.SU.SUSTTPT",
          "mandatory": false,
          "name": "SUSTTPT",
          "description": "Start Reference Time Point",
          "role": "Timing",
          "conceptProperty": "CONCPROP.BiomedicalConceptProperty_48",
          "dataType": "text",
          "length": 20,
          "origin": {
            "type": "Assigned",
            "source": "Sponsor"
          }
        },
        {
          "OID": "IT.SU.SUENRTPT",
          "mandatory": false,
          "name": "SUENRTPT",
          "description": "End Relative to Reference Time Point",
          "role": "Timing",
          "conceptProperty": "CONCPROP.BiomedicalConceptProperty_50",
          "dataType": "text",
          "length": 20,
          "origin": {
            "type": "Assigned",
            "source": "Sponsor"
          },
          "codeList": "CL.STENRF"
        },
        {
          "OID": "IT.SU.SUENTPT",
          "mandatory": false,
          "name": "SUENTPT",
          "description": "End Reference Time Point",
          "role": "Timing",
          "conceptProperty": "CONCPROP.BiomedicalConceptProperty_51",
          "dataType": "text",
          "length": 20,
          "origin": {
            "type": "Assigned",
            "source": "Sponsor"
          }
        }
      ],
      "implementsConcept": "CONC.BiomedicalConcept_15"
    },
    {
      "OID": "IG.PR",
      "name": "PR",
      "description": "Procedures",
      "domain": "PR",
      "purpose": "Tabulation",
      "structure": "One record per recorded procedure per occurrence per subject",
      "isReferenceData": false,
      "keySequence": [
        "STUDYID",
        "USUBJID",
        "PRSEQ"
      ],
      "standard": "STD.SDTMIG",
      "observationClass": {
        "name": "INTERVENTIONS"
      },
      "items": [
        {
          "OID": "IT.PR.STUDYID",
          "mandatory": true,
          "name": "STUDYID",
          "description": "Study Identifier",
          "role": "Identifier",
          "dataType": "text",
          "length": null,
          "origin": {
            "type": "Assigned",
            "source": "Sponsor"
          }
        },
        {
          "OID": "IT.PR.DOMAIN",
          "mandatory": true,
          "name": "DOMAIN",
          "description": "Domain Abbreviation",
          "role": "Identifier",
          "dataType": "text",
          "length": null,
          "origin": {
            "type": "Assigned",
            "source": "Sponsor"
          }
        },
        {
          "OID": "IT.PR.USUBJID",
          "mandatory": true,
          "name": "USUBJID",
          "description": "Unique Subject Identifier",
          "role": "Identifier",
          "dataType": "text",
          "length": null,
          "origin": {
            "type": "Assigned",
            "source": "Sponsor"
          }
        },
        {
          "OID": "IT.PR.PRSEQ",
          "mandatory": true,
          "name": "PRSEQ",
          "description": "Sequence Number",
          "role": "Identifier",
          "dataType": "integer",
          "length": null,
          "origin": {
            "type": "Derived",
            "source": "Sponsor"
          }
        },
        {
          "OID": "IT.PR.PRTRT",
          "mandatory": true,
          "name": "PRTRT",
          "description": "Reported Name of Procedure",
          "role": "Topic",
          "conceptProperty": "CONCPROP.BiomedicalConceptProperty_83",
          "dataType": "text",
          "length": 200,
          "origin": {
            "type": "Collected",
            "source": "Investigator"
          }
        },
        {
          "OID": "IT.PR.PRDECOD",
          "mandatory": false,
          "name": "PRDECOD",
          "description": "Standardized Procedure Name",
          "role": "Synonym Qualifier",
          "conceptProperty": "CONCPROP.BiomedicalConceptProperty_84",
          "dataType": "text",
          "length": 200,
          "origin": {
            "type": "Assigned",
            "source": "Sponsor"
          },
          "codeList": "CL.PROCEDUR"
        },
        {
          "OID": "IT.PR.PRCAT",
          "mandatory": false,
          "name": "PRCAT",
          "description": "Category",
          "role": "Grouping Qualifier",
          "dataType": "text",
          "length": 200,
          "origin": {
            "type": "Assigned",
            "source": "Sponsor"
          }
        },
        {
          "OID": "IT.PR.PRSCAT",
          "mandatory": false,
          "name": "PRSCAT",
          "description": "Subcategory",
          "role": "Grouping Qualifier",
          "dataType": "text",
          "length": 200,
          "origin": {
            "type": "Assigned",
            "source": "Sponsor"
          }
        },
        {
          "OID": "IT.PR.PRPRESP",
          "mandatory": false,
          "name": "PRPRESP",
          "description": "Pre-specified",
          "role": "Variable Qualifier",
          "conceptProperty": "CONCPROP.BiomedicalConceptProperty_85",
          "dataType": "text",
          "length": 1,
          "origin": {
            "type": "Assigned",
            "source": "Sponsor"
          },
          "codeList": "CL.NY_Y"
        },
        {
          "OID": "IT.PR.PROCCUR",
          "mandatory": false,
          "name": "PROCCUR",
          "description": "Occurrence",
          "role": "Record Qualifier",
          "conceptProperty": "CONCPROP.BiomedicalConceptProperty_86",
          "dataType": "text",
          "length": 1,
          "origin": {
            "type": "Collected",
            "source": "Investigator"
          },
          "codeList": "CL.NY_NY"
        },
        {
          "OID": "IT.PR.PRLOC",
          "mandatory": false,
          "name": "PRLOC",
          "description": "Location of Procedure",
          "role": "Record Qualifier",
          "conceptProperty": "CONCPROP.BiomedicalConceptProperty_87",
          "dataType": "text",
          "length": 200,
          "origin": {
            "type": "Collected",
            "source": "Investigator"
          },
          "codeList": "CL.LOC"
        },
        {
          "OID": "IT.PR.PRLAT",
          "mandatory": false,
          "name": "PRLAT",
          "description": "Laterality",
          "role": "Variable Qualifier",
          "conceptProperty": "CONCPROP.BiomedicalConceptProperty_88",
          "dataType": "text",
          "length": 20,
          "origin": {
            "type": "Collected",
            "source": "Investigator"
          },
          "codeList": "CL.LAT"
        },
        {
          "OID": "IT.PR.PRSTDTC",
          "mandatory": false,
          "name": "PRSTDTC",
          "description": "Start Date/Time of Procedure",
          "role": "Timing",
          "conceptProperty": "CONCPROP.BiomedicalConceptProperty_89",
          "dataType": "datetime",
          "origin": {
            "type": "Collected",
            "source": "Investigator"
          }
        },
        {
          "OID": "IT.PR.PRENDTC",
          "mandatory": false,
          "name": "PRENDTC",
          "description": "End Date/Time of Procedure",
          "role": "Timing",
          "conceptProperty": "CONCPROP.BiomedicalConceptProperty_90",
          "dataType": "datetime",
          "origin": {
            "type": "Collected",
            "source": "Investigator"
          }
        }
      ],
      "implementsConcept": "CONC.BiomedicalConcept_18"
    },
    {
      "OID": "IG.VS",
      "name": "VS",
      "description": "Vital Signs",
      "domain": "VS",
      "purpose": "Tabulation",
      "structure": "One record per vital sign measurement per time point per visit per subject",
      "isReferenceData": false,
      "keySequence": [
        "STUDYID",
        "USUBJID",
        "VSSEQ"
      ],
      "standard": "STD.SDTMIG",
      "observationClass": {
        "name": "FINDINGS"
      },
      "items": [
        {
          "OID": "IT.VS.STUDYID",
          "mandatory": true,
          "name": "STUDYID",
          "description": "Study Identifier",
          "role": "Identifier",
          "dataType": "text",
          "length": null,
          "origin": {
            "type": "Assigned",
            "source": "Sponsor"
          }
        },
        {
          "OID": "IT.VS.DOMAIN",
          "mandatory": true,
          "name": "DOMAIN",
          "description": "Domain Abbreviation",
          "role": "Identifier",
          "dataType": "text",
          "length": null,
          "origin": {
            "type": "Assigned",
            "source": "Sponsor"
          }
        },
        {
          "OID": "IT.VS.USUBJID",
          "mandatory": true,
          "name": "USUBJID",
          "description": "Unique Subject Identifier",
          "role": "Identifier",
          "dataType": "text",
          "length": null,
          "origin": {
            "type": "Assigned",
            "source": "Sponsor"
          }
        },
        {
          "OID": "IT.VS.VSSEQ",
          "mandatory": true,
          "name": "VSSEQ",
          "description": "Sequence Number",
          "role": "Identifier",
          "dataType": "integer",
          "length": null,
          "origin": {
            "type": "Derived",
            "source": "Sponsor"
          }
        },
        {
          "OID": "IT.VS.VSTESTCD",
          "mandatory": true,
          "name": "VSTESTCD",
          "description": "Vital Signs Test Short Name",
          "role": "Topic",
          "dataType": "text",
          "length": null,
          "origin": {
            "type": "Assigned",
            "source": "Sponsor"
          },
          "codeList": "CL.VSTESTCD"
        },
        {
          "OID": "IT.VS.VSTEST",
          "mandatory": true,
          "name": "VSTEST",
          "description": "Vital Signs Test Name",
          "role": "Synonym Qualifier",
          "dataType": "text",
          "length": null,
          "origin": {
            "type": "Assigned",
            "source": "Sponsor"
          },
          "codeList": "CL.VSTEST"
        },
        {
          "OID": "IT.VS.VSPOS",
          "mandatory": false,
          "name": "VSPOS",
          "description": "Vital Signs Position of Subject",
          "role": "Record Qualifier",
          "dataType": "text",
          "length": null,
          "origin": {
            "type": "Collected",
            "source": "Investigator"
          },
          "codeList": "CL.POSITION"
        },
        {
          "OID": "IT.VS.VSORRES",
          "mandatory": false,
          "name": "VSORRES",
          "description": "Result or Finding in Original Units",
          "role": "Result Qualifier",
          "conceptProperty": "CONCPROP.BiomedicalConceptProperty_94",
          "dataType": "float",
          "length": 8,
          "displayFormat": "8.3",
          "significantDigits": 3,
          "origin": {
            "type": "Collected",
            "source": "Investigator"
          }
        },
        {
          "OID": "IT.VS.VSORRESU",
          "mandatory": false,
          "name": "VSORRESU",
          "description": "Original Units",
          "role": "Variable Qualifier",
          "conceptProperty": "CONCPROP.BiomedicalConceptProperty_95",
          "dataType": "text",
          "length": 20,
          "origin": {
            "type": "Collected",
            "source": "Investigator"
          },
          "codeList": "CL.VSRESU"
        },
        {
          "OID": "IT.VS.VSSTRESC",
          "mandatory": false,
          "name": "VSSTRESC",
          "description": "Character Result/Finding in Std Format",
          "role": "Result Qualifier",
          "dataType": "float",
          "length": 8,
          "displayFormat": "8.3",
          "significantDigits": 3,
          "origin": {
            "type": "Derived",
            "source": "Sponsor"
          }
        },
        {
          "OID": "IT.VS.VSSTRESN",
          "mandatory": false,
          "name": "VSSTRESN",
          "description": "Numeric Result/Finding in Standard Units",
          "role": "Result Qualifier",
          "dataType": "float",
          "length": 8,
          "displayFormat": "8.3",
          "significantDigits": 3,
          "origin": {
            "type": "Derived",
            "source": "Sponsor"
          }
        },
        {
          "OID": "IT.VS.VSSTRESU",
          "mandatory": false,
          "name": "VSSTRESU",
          "description": "Standard Units",
          "role": "Variable Qualifier",
          "dataType": "text",
          "length": 20,
          "origin": {
            "type": "Assigned",
            "source": "Sponsor"
          },
          "codeList": "CL.VSRESU"
        },
        {
          "OID": "IT.VS.VSLOC",
          "mandatory": false,
          "name": "VSLOC",
          "description": "Location of Vital Signs Measurement",
          "role": "Record Qualifier",
          "conceptProperty": "CONCPROP.BiomedicalConceptProperty_96",
          "dataType": "text",
          "length": null,
          "origin": {
            "type": "Collected",
            "source": "Investigator"
          },
          "codeList": "CL.LOC"
        },
        {
          "OID": "IT.VS.VSLAT",
          "mandatory": false,
          "name": "VSLAT",
          "description": "Laterality",
          "role": "Result Qualifier",
          "dataType": "text",
          "length": null,
          "origin": {
            "type": "Collected",
            "source": "Investigator"
          },
          "codeList": "CL.LAT"
        },
        {
          "OID": "IT.VS.VSLOBXFL",
          "mandatory": false,
          "name": "VSLOBXFL",
          "description": "Last Observation Before Exposure Flag",
          "role": "Record Qualifier",
          "dataType": "text",
          "length": null,
          "origin": {
            "type": "Collected",
            "source": "Investigator"
          },
          "codeList": "CL.NY"
        },
        {
          "OID": "IT.VS.VISITNUM",
          "mandatory": false,
          "name": "VISITNUM",
          "description": "Visit Number",
          "role": "Timing",
          "dataType": "integer",
          "length": null,
          "origin": {
            "type": "Collected",
            "source": "Investigator"
          }
        },
        {
          "OID": "IT.VS.VSDTC",
          "mandatory": false,
          "name": "VSDTC",
          "description": "Date/Time of Measurements",
          "role": "Timing",
          "conceptProperty": "CONCPROP.BiomedicalConceptProperty_97",
          "dataType": "datetime",
          "origin": {
            "type": "Collected",
            "source": "Investigator"
          }
        }
      ],
      "implementsConcept": "CONC.BiomedicalConcept_20"
    },
    {
      "OID": "IG.EG",
      "name": "EG",
      "description": "ECG Test Results",
      "domain": "EG",
      "purpose": "Tabulation",
      "structure": "One record per ECG observation per replicate per time point or one record per ECG observation per beat per visit per subject",
      "isReferenceData": false,
      "keySequence": [
        "STUDYID",
        "USUBJID",
        "EGSEQ"
      ],
      "standard": "STD.SDTMIG",
      "observationClass": {
        "name": "FINDINGS"
      },
      "items": [
        {
          "OID": "IT.EG.STUDYID",
          "mandatory": true,
          "name": "STUDYID",
          "description": "Study Identifier",
          "role": "Identifier",
          "dataType": "text",
          "length": null,
          "origin": {
            "type": "Assigned",
            "source": "Sponsor"
          }
        },
        {
          "OID": "IT.EG.DOMAIN",
          "mandatory": true,
          "name": "DOMAIN",
          "description": "Domain Abbreviation",
          "role": "Identifier",
          "dataType": "text",
          "length": null,
          "origin": {
            "type": "Assigned",
            "source": "Sponsor"
          }
        },
        {
          "OID": "IT.EG.USUBJID",
          "mandatory": true,
          "name": "USUBJID",
          "description": "Unique Subject Identifier",
          "role": "Identifier",
          "dataType": "text",
          "length": null,
          "origin": {
            "type": "Assigned",
            "source": "Sponsor"
          }
        },
        {
          "OID": "IT.EG.EGSEQ",
          "mandatory": true,
          "name": "EGSEQ",
          "description": "Sequence Number",
          "role": "Identifier",
          "dataType": "integer",
          "length": null,
          "origin": {
            "type": "Derived",
            "source": "Sponsor"
          }
        },
        {
          "OID": "IT.EG.EGTESTCD",
          "mandatory": true,
          "name": "EGTESTCD",
          "description": "ECG Test or Examination Short Name",
          "role": "Topic",
          "dataType": "text",
          "length": null,
          "origin": {
            "type": "Assigned",
            "source": "Sponsor"
          },
          "codeList": "CL.EGTESTCD"
        },
        {
          "OID": "IT.EG.EGTEST",
          "mandatory": true,
          "name": "EGTEST",
          "description": "ECG Test or Examination Name",
          "role": "Synonym Qualifier",
          "dataType": "text",
          "length": null,
          "origin": {
            "type": "Assigned",
            "source": "Sponsor"
          },
          "codeList": "CL.EGTEST"
        },
        {
          "OID": "IT.EG.EGCAT",
          "mandatory": false,
          "name": "EGCAT",
          "description": "Category for ECG",
          "role": "Grouping Qualifier",
          "dataType": "text",
          "length": null,
          "origin": {
            "type": "Assigned",
            "source": "Sponsor"
          }
        },
        {
          "OID": "IT.EG.EGPOS",
          "mandatory": false,
          "name": "EGPOS",
          "description": "ECG Position of Subject",
          "role": "Record Qualifier",
          "dataType": "text",
          "length": null,
          "origin": {
            "type": "Collected",
            "source": "Investigator"
          },
          "codeList": "CL.POSITION"
        },
        {
          "OID": "IT.EG.EGORRES",
          "mandatory": false,
          "name": "EGORRES",
          "description": "Result or Finding in Original Units",
          "role": "Result Qualifier",
          "conceptProperty": "CONCPROP.BiomedicalConceptProperty_116",
          "dataType": "text",
          "length": 20,
          "origin": {
            "type": "Collected",
            "source": "Vendor"
          }
        },
        {
          "OID": "IT.EG.EGORRESU",
          "mandatory": false,
          "name": "EGORRESU",
          "description": "Original Units",
          "role": "Variable Qualifier",
          "dataType": "text",
          "length": 20,
          "origin": {
            "type": "Collected",
            "source": "Vendor"
          },
          "codeList": "CL.UNIT"
        },
        {
          "OID": "IT.EG.EGSTRESC",
          "mandatory": false,
          "name": "EGSTRESC",
          "description": "Character Result/Finding in Std Format",
          "role": "Result Qualifier",
          "dataType": "text",
          "length": 20,
          "origin": {
            "type": "Derived",
            "source": "Vendor"
          },
          "codeList": "CL.EGSTRESC"
        },
        {
          "OID": "IT.EG.EGSTRESN",
          "mandatory": false,
          "name": "EGSTRESN",
          "description": "Numeric Result/Finding in Standard Units",
          "role": "Result Qualifier",
          "dataType": "float",
          "length": 8,
          "displayFormat": "8.3",
          "significantDigits": 3,
          "origin": {
            "type": "Derived",
            "source": "Vendor"
          }
        },
        {
          "OID": "IT.EG.EGSTRESU",
          "mandatory": false,
          "name": "EGSTRESU",
          "description": "Standard Units",
          "role": "Variable Qualifier",
          "dataType": "text",
          "length": 20,
          "origin": {
            "type": "Assigned",
            "source": "Vendor"
          },
          "codeList": "CL.UNIT"
        },
        {
          "OID": "IT.EG.EGMETHOD",
          "mandatory": false,
          "name": "EGMETHOD",
          "description": "Method of Test or Examination",
          "role": "Record Qualifier",
          "conceptProperty": "CONCPROP.BiomedicalConceptProperty_117",
          "dataType": "text",
          "length": null,
          "origin": {
            "type": "Collected",
            "source": "Investigator"
          },
          "codeList": "CL.EGMETHOD"
        },
        {
          "OID": "IT.EG.EGLOBXFL",
          "mandatory": false,
          "name": "EGLOBXFL",
          "description": "Last Observation Before Exposure Flag",
          "role": "Record Qualifier",
          "dataType": "text",
          "length": null,
          "origin": {
            "type": "Collected",
            "source": "Investigator"
          },
          "codeList": "CL.NY"
        },
        {
          "OID": "IT.EG.EGEVAL",
          "mandatory": false,
          "name": "EGEVAL",
          "description": "Evaluator",
          "role": "Record Qualifier",
          "conceptProperty": "CONCPROP.BiomedicalConceptProperty_118",
          "dataType": "text",
          "length": null,
          "origin": {
            "type": "Collected",
            "source": "Investigator"
          },
          "codeList": "CL.EVAL"
        },
        {
          "OID": "IT.EG.EGCLSIG",
          "mandatory": false,
          "name": "EGCLSIG",
          "description": "Clinically Significant, Collected",
          "role": "Record Qualifier",
          "conceptProperty": "CONCPROP.BiomedicalConceptProperty_119",
          "dataType": "text",
          "length": null,
          "origin": {
            "type": "Collected",
            "source": "Investigator"
          },
          "codeList": "CL.NY_NY"
        },
        {
          "OID": "IT.EG.VISITNUM",
          "mandatory": false,
          "name": "VISITNUM",
          "description": "Visit Number",
          "role": "Timing",
          "dataType": "integer",
          "length": null,
          "origin": {
            "type": "Collected",
            "source": "Investigator"
          }
        },
        {
          "OID": "IT.EG.EGDTC",
          "mandatory": false,
          "name": "EGDTC",
          "description": "Date/Time of ECG",
          "role": "Timing",
          "conceptProperty": "CONCPROP.BiomedicalConceptProperty_120",
          "dataType": "datetime",
          "origin": {
            "type": "Collected",
            "source": "Investigator"
          }
        }
      ],
      "implementsConcept": "CONC.BiomedicalConcept_27"
    },
    {
      "OID": "IG.CM",
      "name": "CM",
      "description": "Concomitant/Prior Medications",
      "domain": "CM",
      "purpose": "Tabulation",
      "structure": "One record per recorded intervention occurrence or constant-dosing interval per subject",
      "isReferenceData": false,
      "keySequence": [
        "STUDYID",
        "USUBJID",
        "CMSEQ"
      ],
      "standard": "STD.SDTMIG",
      "observationClass": {
        "name": "INTERVENTIONS"
      },
      "items": [
        {
          "OID": "IT.CM.STUDYID",
          "mandatory": true,
          "name": "STUDYID",
          "description": "Study Identifier",
          "role": "Identifier",
          "dataType": "text",
          "length": null,
          "origin": {
            "type": "Assigned",
            "source": "Sponsor"
          }
        },
        {
          "OID": "IT.CM.DOMAIN",
          "mandatory": true,
          "name": "DOMAIN",
          "description": "Domain Abbreviation",
          "role": "Identifier",
          "dataType": "text",
          "length": null,
          "origin": {
            "type": "Assigned",
            "source": "Sponsor"
          }
        },
        {
          "OID": "IT.CM.USUBJID",
          "mandatory": true,
          "name": "USUBJID",
          "description": "Unique Subject Identifier",
          "role": "Identifier",
          "dataType": "text",
          "length": null,
          "origin": {
            "type": "Assigned",
            "source": "Sponsor"
          }
        },
        {
          "OID": "IT.CM.CMSEQ",
          "mandatory": true,
          "name": "CMSEQ",
          "description": "Sequence Number",
          "role": "Identifier",
          "dataType": "integer",
          "length": null,
          "origin": {
            "type": "Derived",
            "source": "Sponsor"
          }
        },
        {
          "OID": "IT.CM.CMTRT",
          "mandatory": true,
          "name": "CMTRT",
          "description": "Reported Name of Drug, Med, or Therapy",
          "role": "Topic",
          "conceptProperty": "CONCPROP.BiomedicalConceptProperty_266",
          "dataType": "text",
          "length": 200,
          "origin": {
            "type": "Collected",
            "source": "Investigator"
          }
        },
        {
          "OID": "IT.CM.CMDECOD",
          "mandatory": false,
          "name": "CMDECOD",
          "description": "Standardized Medication Name",
          "role": "Synonym Qualifier",
          "conceptProperty": "CONCPROP.BiomedicalConceptProperty_267",
          "dataType": "text",
          "length": 200,
          "origin": {
            "type": "Assigned",
            "source": "Sponsor"
          }
        },
        {
          "OID": "IT.CM.CMCAT",
          "mandatory": false,
          "name": "CMCAT",
          "description": "Category for Medication",
          "role": "Grouping Qualifier",
          "dataType": "text",
          "length": 200,
          "origin": {
            "type": "Assigned",
            "source": "Sponsor"
          }
        },
        {
          "OID": "IT.CM.CMSCAT",
          "mandatory": false,
          "name": "CMSCAT",
          "description": "Subcategory for Medication",
          "role": "Grouping Qualifier",
          "dataType": "text",
          "length": 200,
          "origin": {
            "type": "Assigned",
            "source": "Sponsor"
          }
        },
        {
          "OID": "IT.CM.CMPRESP",
          "mandatory": false,
          "name": "CMPRESP",
          "description": "CM Pre-specified",
          "role": "Variable Qualifier",
          "dataType": "text",
          "length": 1,
          "origin": {
            "type": "Assigned",
            "source": "Sponsor"
          },
          "codeList": "CL.NY"
        },
        {
          "OID": "IT.CM.CMOCCUR",
          "mandatory": false,
          "name": "CMOCCUR",
          "description": "CM Occurrence",
          "role": "Record Qualifier",
          "dataType": "text",
          "length": 1,
          "origin": {
            "type": "Collected",
            "source": "Investigator"
          },
          "codeList": "CL.NY"
        },
        {
          "OID": "IT.CM.CMINDC",
          "mandatory": false,
          "name": "CMINDC",
          "description": "Indication",
          "role": "Record Qualifier",
          "conceptProperty": "CONCPROP.BiomedicalConceptProperty_269",
          "dataType": "text",
          "length": 200,
          "origin": {
            "type": "Collected",
            "source": "Investigator"
          }
        },
        {
          "OID": "IT.CM.CMCLAS",
          "mandatory": false,
          "name": "CMCLAS",
          "description": "Medication Class",
          "role": "Variable Qualifier",
          "conceptProperty": "CONCPROP.BiomedicalConceptProperty_268",
          "dataType": "text",
          "length": 200,
          "origin": {
            "type": "Assigned",
            "source": "Sponsor"
          }
        },
        {
          "OID": "IT.CM.CMCLASCD",
          "mandatory": false,
          "name": "CMCLASCD",
          "description": "Medication Class Code",
          "role": "Variable Qualifier",
          "dataType": "text",
          "length": 200,
          "origin": {
            "type": "Assigned",
            "source": "Sponsor"
          }
        },
        {
          "OID": "IT.CM.CMDOSE",
          "mandatory": false,
          "name": "CMDOSE",
          "description": "Dose per Administration",
          "role": "Record Qualifier",
          "conceptProperty": "CONCPROP.BiomedicalConceptProperty_270",
          "dataType": "float",
          "length": 8,
          "displayFormat": "8.3",
          "significantDigits": 3,
          "origin": {
            "type": "Collected",
            "source": "Investigator"
          }
        },
        {
          "OID": "IT.CM.CMDOSTXT",
          "mandatory": false,
          "name": "CMDOSTXT",
          "description": "Dose Description",
          "role": "Record Qualifier",
          "conceptProperty": "CONCPROP.BiomedicalConceptProperty_271",
          "dataType": "text",
          "length": 40,
          "origin": {
            "type": "Collected",
            "source": "Investigator"
          }
        },
        {
          "OID": "IT.CM.CMDOSU",
          "mandatory": false,
          "name": "CMDOSU",
          "description": "Dose Units",
          "role": "Variable Qualifier",
          "conceptProperty": "CONCPROP.BiomedicalConceptProperty_272",
          "dataType": "text",
          "length": 40,
          "origin": {
            "type": "Collected",
            "source": "Investigator"
          },
          "codeList": "CL.UNIT"
        },
        {
          "OID": "IT.CM.CMDOSFRM",
          "mandatory": false,
          "name": "CMDOSFRM",
          "description": "Dose Form",
          "role": "Variable Qualifier",
          "conceptProperty": "CONCPROP.BiomedicalConceptProperty_273",
          "dataType": "text",
          "length": 40,
          "origin": {
            "type": "Collected",
            "source": "Investigator"
          },
          "codeList": "CL.FRM"
        },
        {
          "OID": "IT.CM.CMDOSFRQ",
          "mandatory": false,
          "name": "CMDOSFRQ",
          "description": "Dosing Frequency per Interval",
          "role": "Record Qualifier",
          "conceptProperty": "CONCPROP.BiomedicalConceptProperty_274",
          "dataType": "text",
          "length": 40,
          "origin": {
            "type": "Collected",
            "source": "Investigator"
          },
          "codeList": "CL.FREQ"
        },
        {
          "OID": "IT.CM.CMROUTE",
          "mandatory": false,
          "name": "CMROUTE",
          "description": "Route of Administration",
          "role": "Variable Qualifier",
          "conceptProperty": "CONCPROP.BiomedicalConceptProperty_275",
          "dataType": "text",
          "length": 40,
          "origin": {
            "type": "Collected",
            "source": "Investigator"
          },
          "codeList": "CL.ROUTE"
        },
        {
          "OID": "IT.CM.CMSTDTC",
          "mandatory": false,
          "name": "CMSTDTC",
          "description": "Start Date/Time of Medication",
          "role": "Timing",
          "conceptProperty": "CONCPROP.BiomedicalConceptProperty_276",
          "dataType": "datetime",
          "origin": {
            "type": "Collected",
            "source": "Investigator"
          }
        },
        {
          "OID": "IT.CM.CMENDTC",
          "mandatory": false,
          "name": "CMENDTC",
          "description": "End Date/Time of Medication",
          "role": "Timing",
          "conceptProperty": "CONCPROP.BiomedicalConceptProperty_277",
          "dataType": "datetime",
          "origin": {
            "type": "Collected",
            "source": "Investigator"
          }
        },
        {
          "OID": "IT.CM.CMSTRF",
          "mandatory": false,
          "name": "CMSTRF",
          "description": "Start Relative to Reference Period",
          "role": "Timing",
          "conceptProperty": "CONCPROP.BiomedicalConceptProperty_278",
          "dataType": "text",
          "length": 20,
          "origin": {
            "type": "Assigned",
            "source": "Sponsor"
          },
          "codeList": "CL.STENRF"
        },
        {
          "OID": "IT.CM.CMENRF",
          "mandatory": false,
          "name": "CMENRF",
          "description": "End Relative to Reference Period",
          "role": "Timing",
          "conceptProperty": "CONCPROP.BiomedicalConceptProperty_281",
          "dataType": "text",
          "length": 20,
          "origin": {
            "type": "Assigned",
            "source": "Sponsor"
          },
          "codeList": "CL.STENRF"
        },
        {
          "OID": "IT.CM.CMSTRTPT",
          "mandatory": false,
          "name": "CMSTRTPT",
          "description": "Start Relative to Reference Time Point",
          "role": "Timing",
          "conceptProperty": "CONCPROP.BiomedicalConceptProperty_279",
          "dataType": "text",
          "length": 20,
          "origin": {
            "type": "Assigned",
            "source": "Sponsor"
          },
          "codeList": "CL.STENRF"
        },
        {
          "OID": "IT.CM.CMSTTPT",
          "mandatory": false,
          "name": "CMSTTPT",
          "description": "Start Reference Time Point",
          "role": "Timing",
          "conceptProperty": "CONCPROP.BiomedicalConceptProperty_280",
          "dataType": "text",
          "length": 20,
          "origin": {
            "type": "Assigned",
            "source": "Sponsor"
          }
        },
        {
          "OID": "IT.CM.CMENRTPT",
          "mandatory": false,
          "name": "CMENRTPT",
          "description": "End Relative to Reference Time Point",
          "role": "Timing",
          "conceptProperty": "CONCPROP.BiomedicalConceptProperty_282",
          "dataType": "text",
          "length": 20,
          "origin": {
            "type": "Assigned",
            "source": "Sponsor"
          },
          "codeList": "CL.STENRF"
        },
        {
          "OID": "IT.CM.CMENTPT",
          "mandatory": false,
          "name": "CMENTPT",
          "description": "End Reference Time Point",
          "role": "Timing",
          "conceptProperty": "CONCPROP.BiomedicalConceptProperty_283",
          "dataType": "text",
          "length": 20,
          "origin": {
            "type": "Assigned",
            "source": "Sponsor"
          }
        }
      ],
      "implementsConcept": "CONC.BiomedicalConcept_55"
    },
    {
      "OID": "IG.MB",
      "name": "MB",
      "description": "Microbiology Specimen",
      "domain": "MB",
      "purpose": "Tabulation",
      "structure": "One record per microbiology specimen finding per time point per visit per subject",
      "isReferenceData": false,
      "keySequence": [
        "STUDYID",
        "USUBJID",
        "MBSEQ"
      ],
      "standard": "STD.SDTMIG",
      "observationClass": {
        "name": "FINDINGS"
      },
      "items": [
        {
          "OID": "IT.MB.STUDYID",
          "mandatory": true,
          "name": "STUDYID",
          "description": "Study Identifier",
          "role": "Identifier",
          "dataType": "text",
          "length": null,
          "origin": {
            "type": "Assigned",
            "source": "Sponsor"
          }
        },
        {
          "OID": "IT.MB.DOMAIN",
          "mandatory": true,
          "name": "DOMAIN",
          "description": "Domain Abbreviation",
          "role": "Identifier",
          "dataType": "text",
          "length": null,
          "origin": {
            "type": "Assigned",
            "source": "Sponsor"
          }
        },
        {
          "OID": "IT.MB.USUBJID",
          "mandatory": true,
          "name": "USUBJID",
          "description": "Unique Subject Identifier",
          "role": "Identifier",
          "dataType": "text",
          "length": null,
          "origin": {
            "type": "Assigned",
            "source": "Sponsor"
          }
        },
        {
          "OID": "IT.MB.MBSEQ",
          "mandatory": true,
          "name": "MBSEQ",
          "description": "Sequence Number",
          "role": "Identifier",
          "dataType": "integer",
          "length": null,
          "origin": {
            "type": "Derived",
            "source": "Sponsor"
          }
        },
        {
          "OID": "IT.MB.MBTESTCD",
          "mandatory": true,
          "name": "MBTESTCD",
          "description": "Microbiology Test or Finding Short Name",
          "role": "Topic",
          "dataType": "text",
          "length": null,
          "origin": {
            "type": "Assigned",
            "source": "Sponsor"
          },
          "codeList": "CL.MBTESTCD"
        },
        {
          "OID": "IT.MB.MBTEST",
          "mandatory": true,
          "name": "MBTEST",
          "description": "Microbiology Test or Finding Name",
          "role": "Synonym Qualifier",
          "dataType": "text",
          "length": null,
          "origin": {
            "type": "Assigned",
            "source": "Sponsor"
          },
          "codeList": "CL.MBTEST"
        },
        {
          "OID": "IT.MB.MBTSTDTL",
          "mandatory": false,
          "name": "MBTSTDTL",
          "description": "Measurement, Test or Examination Detail",
          "role": "Variable Qualifier",
          "conceptProperty": "CONCPROP.BiomedicalConceptProperty_592",
          "dataType": "text",
          "length": null,
          "origin": {
            "type": "Assigned",
            "source": "Sponsor"
          },
          "codeList": "CL.MBFTSDTL"
        },
        {
          "OID": "IT.MB.MBORRES",
          "mandatory": false,
          "name": "MBORRES",
          "description": "Result or Finding in Original Units",
          "role": "Result Qualifier",
          "conceptProperty": "CONCPROP.BiomedicalConceptProperty_593",
          "dataType": "text",
          "length": 20,
          "origin": {
            "type": "Collected",
            "source": "Vendor"
          }
        },
        {
          "OID": "IT.MB.MBSTRESC",
          "mandatory": false,
          "name": "MBSTRESC",
          "description": "Result or Finding in Standard Format",
          "role": "Result Qualifier",
          "dataType": "text",
          "length": 20,
          "origin": {
            "type": "Derived",
            "source": "Vendor"
          }
        },
        {
          "OID": "IT.MB.MBSPEC",
          "mandatory": false,
          "name": "MBSPEC",
          "description": "Specimen Material Type",
          "role": "Record Qualifier",
          "conceptProperty": "CONCPROP.BiomedicalConceptProperty_594",
          "dataType": "text",
          "length": null,
          "origin": {
            "type": "Collected",
            "source": "Investigator"
          },
          "codeList": "CL.SPECTYPE"
        },
        {
          "OID": "IT.MB.MBMETHOD",
          "mandatory": false,
          "name": "MBMETHOD",
          "description": "Method of Test or Examination",
          "role": "Record Qualifier",
          "conceptProperty": "CONCPROP.BiomedicalConceptProperty_595",
          "dataType": "text",
          "length": null,
          "origin": {
            "type": "Collected",
            "source": "Investigator"
          },
          "codeList": "CL.METHOD"
        },
        {
          "OID": "IT.MB.VISITNUM",
          "mandatory": false,
          "name": "VISITNUM",
          "description": "Visit Number",
          "role": "Timing",
          "dataType": "integer",
          "length": null,
          "origin": {
            "type": "Collected",
            "source": "Investigator"
          }
        },
        {
          "OID": "IT.MB.MBDTC",
          "mandatory": false,
          "name": "MBDTC",
          "description": "Date/Time of Collection",
          "role": "Timing",
          "conceptProperty": "CONCPROP.BiomedicalConceptProperty_596",
          "dataType": "datetime",
          "origin": {
            "type": "Collected",
            "source": "Investigator"
          }
        }
      ],
      "implementsConcept": "CONC.BiomedicalConcept_99"
    },
    {
      "OID": "IG.UR",
      "name": "UR",
      "description": "Urinary System Findings",
      "domain": "UR",
      "purpose": "Tabulation",
      "structure": "One record per finding per location per per visit per subject",
      "isReferenceData": false,
      "keySequence": [
        "STUDYID",
        "USUBJID",
        "URSEQ"
      ],
      "standard": "STD.SDTMIG",
      "observationClass": {
        "name": "FINDINGS"
      },
      "items": [
        {
          "OID": "IT.UR.STUDYID",
          "mandatory": true,
          "name": "STUDYID",
          "description": "Study Identifier",
          "role": "Identifier",
          "dataType": "text",
          "length": null,
          "origin": {
            "type": "Assigned",
            "source": "Sponsor"
          }
        },
        {
          "OID": "IT.UR.DOMAIN",
          "mandatory": true,
          "name": "DOMAIN",
          "description": "Domain Abbreviation",
          "role": "Identifier",
          "dataType": "text",
          "length": null,
          "origin": {
            "type": "Assigned",
            "source": "Sponsor"
          }
        },
        {
          "OID": "IT.UR.USUBJID",
          "mandatory": true,
          "name": "USUBJID",
          "description": "Unique Subject Identifier",
          "role": "Identifier",
          "dataType": "text",
          "length": null,
          "origin": {
            "type": "Assigned",
            "source": "Sponsor"
          }
        },
        {
          "OID": "IT.UR.URSEQ",
          "mandatory": true,
          "name": "URSEQ",
          "description": "Sequence Number",
          "role": "Identifier",
          "dataType": "integer",
          "length": null,
          "origin": {
            "type": "Derived",
            "source": "Sponsor"
          }
        },
        {
          "OID": "IT.UR.URTESTCD",
          "mandatory": true,
          "name": "URTESTCD",
          "description": "Short Name of Urinary Test",
          "role": "Topic",
          "dataType": "text",
          "length": null,
          "origin": {
            "type": "Assigned",
            "source": "Sponsor"
          },
          "codeList": "CL.URNSTSCD"
        },
        {
          "OID": "IT.UR.URTEST",
          "mandatory": true,
          "name": "URTEST",
          "description": "Name of Urinary Test",
          "role": "Synonym Qualifier",
          "dataType": "text",
          "length": null,
          "origin": {
            "type": "Assigned",
            "source": "Sponsor"
          },
          "codeList": "CL.URNSTS"
        },
        {
          "OID": "IT.UR.URORRES",
          "mandatory": false,
          "name": "URORRES",
          "description": "Result or Finding in Original Units",
          "role": "Result Qualifier",
          "dataType": "text",
          "length": 200,
          "origin": {
            "type": "Collected",
            "source": "Investigator"
          }
        },
        {
          "OID": "IT.UR.URSTRESC",
          "mandatory": false,
          "name": "URSTRESC",
          "description": "Character Result/Finding in Std Format",
          "role": "Result Qualifier",
          "dataType": "text",
          "length": 2,
          "origin": {
            "type": "Derived",
            "source": "Sponsor"
          }
        },
        {
          "OID": "IT.UR.URMETHOD",
          "mandatory": false,
          "name": "URMETHOD",
          "description": "Method of Test or Examination",
          "role": "Record Qualifier",
          "dataType": "text",
          "length": null,
          "origin": {
            "type": "Collected",
            "source": "Investigator"
          },
          "codeList": "CL.METHOD"
        },
        {
          "OID": "IT.UR.URLOBXFL",
          "mandatory": false,
          "name": "URLOBXFL",
          "description": "Last Observation Before Exposure Flag",
          "role": "Record Qualifier",
          "dataType": "text",
          "length": null,
          "origin": {
            "type": "Collected",
            "source": "Investigator"
          },
          "codeList": "CL.NY"
        },
        {
          "OID": "IT.UR.VISITNUM",
          "mandatory": false,
          "name": "VISITNUM",
          "description": "Visit Number",
          "role": "Timing",
          "dataType": "integer",
          "length": null,
          "origin": {
            "type": "Collected",
            "source": "Investigator"
          }
        },
        {
          "OID": "IT.UR.URDTC",
          "mandatory": false,
          "name": "URDTC",
          "description": "Date/Time of Collection",
          "role": "Timing",
          "dataType": "datetime",
          "origin": {
            "type": "Collected",
            "source": "Investigator"
          }
        }
      ],
      "implementsConcept": "CONC.BiomedicalConcept_101"
    },
    {
      "OID": "IG.EC",
      "name": "EC",
      "description": "Exposure as Collected",
      "domain": "EC",
      "purpose": "Tabulation",
      "structure": "One record per protocol-specified study treatment, collected-dosing interval, per subject, per mood",
      "isReferenceData": false,
      "keySequence": [
        "STUDYID",
        "USUBJID",
        "ECSEQ"
      ],
      "standard": "STD.SDTMIG",
      "observationClass": {
        "name": "INTERVENTIONS"
      },
      "items": [
        {
          "OID": "IT.EC.STUDYID",
          "mandatory": true,
          "name": "STUDYID",
          "description": "Study Identifier",
          "role": "Identifier",
          "dataType": "text",
          "length": null,
          "origin": {
            "type": "Assigned",
            "source": "Sponsor"
          }
        },
        {
          "OID": "IT.EC.DOMAIN",
          "mandatory": true,
          "name": "DOMAIN",
          "description": "Domain Abbreviation",
          "role": "Identifier",
          "dataType": "text",
          "length": null,
          "origin": {
            "type": "Assigned",
            "source": "Sponsor"
          }
        },
        {
          "OID": "IT.EC.USUBJID",
          "mandatory": true,
          "name": "USUBJID",
          "description": "Unique Subject Identifier",
          "role": "Identifier",
          "dataType": "text",
          "length": null,
          "origin": {
            "type": "Assigned",
            "source": "Sponsor"
          }
        },
        {
          "OID": "IT.EC.ECSEQ",
          "mandatory": true,
          "name": "ECSEQ",
          "description": "Sequence Number",
          "role": "Identifier",
          "dataType": "integer",
          "length": null,
          "origin": {
            "type": "Derived",
            "source": "Sponsor"
          }
        },
        {
          "OID": "IT.EC.ECREFID",
          "mandatory": false,
          "name": "ECREFID",
          "description": "Reference ID",
          "role": "Identifier",
          "conceptProperty": "CONCPROP.BiomedicalConceptProperty_721",
          "dataType": "text",
          "length": null,
          "origin": {
            "type": "Collected",
            "source": "Investigator"
          }
        },
        {
          "OID": "IT.EC.ECTRT",
          "mandatory": true,
          "name": "ECTRT",
          "description": "Name of Treatment",
          "role": "Topic",
          "conceptProperty": "CONCPROP.BiomedicalConceptProperty_720",
          "dataType": "text",
          "length": 200,
          "origin": {
            "type": "Collected",
            "source": "Investigator"
          }
        },
        {
          "OID": "IT.EC.ECDOSE",
          "mandatory": false,
          "name": "ECDOSE",
          "description": "Dose",
          "role": "Record Qualifier",
          "conceptProperty": "CONCPROP.BiomedicalConceptProperty_722",
          "dataType": "integer",
          "length": 20,
          "origin": {
            "type": "Collected",
            "source": "Investigator"
          }
        },
        {
          "OID": "IT.EC.ECDOSTXT",
          "mandatory": false,
          "name": "ECDOSTXT",
          "description": "Dose Description",
          "role": "Record Qualifier",
          "conceptProperty": "CONCPROP.BiomedicalConceptProperty_723",
          "dataType": "text",
          "length": 100,
          "origin": {
            "type": "Collected",
            "source": "Investigator"
          }
        },
        {
          "OID": "IT.EC.ECDOSU",
          "mandatory": false,
          "name": "ECDOSU",
          "description": "Dose Units",
          "role": "Variable Qualifier",
          "conceptProperty": "CONCPROP.BiomedicalConceptProperty_724",
          "dataType": "text",
          "length": 200,
          "origin": {
            "type": "Collected",
            "source": "Investigator"
          },
          "codeList": "CL.UNIT"
        },
        {
          "OID": "IT.EC.ECDOSFRM",
          "mandatory": false,
          "name": "ECDOSFRM",
          "description": "Dose Form",
          "role": "Variable Qualifier",
          "conceptProperty": "CONCPROP.BiomedicalConceptProperty_725",
          "dataType": "text",
          "length": 200,
          "origin": {
            "type": "Collected",
            "source": "Investigator"
          },
          "codeList": "CL.FRM"
        },
        {
          "OID": "IT.EC.ECDOSFRQ",
          "mandatory": false,
          "name": "ECDOSFRQ",
          "description": "Dosing Frequency per Interval",
          "role": "Record Qualifier",
          "conceptProperty": "CONCPROP.BiomedicalConceptProperty_726",
          "dataType": "text",
          "length": 200,
          "origin": {
            "type": "Collected",
            "source": "Investigator"
          },
          "codeList": "CL.FREQ"
        },
        {
          "OID": "IT.EC.ECDOSRGM",
          "mandatory": false,
          "name": "ECDOSRGM",
          "description": "Intended Dose Regimen",
          "role": "Record Qualifier",
          "conceptProperty": "CONCPROP.BiomedicalConceptProperty_727",
          "dataType": "text",
          "length": null,
          "origin": {
            "type": "Collected",
            "source": "Investigator"
          }
        },
        {
          "OID": "IT.EC.ECROUTE",
          "mandatory": false,
          "name": "ECROUTE",
          "description": "Route of Administration",
          "role": "Variable Qualifier",
          "conceptProperty": "CONCPROP.BiomedicalConceptProperty_728",
          "dataType": "text",
          "length": 200,
          "origin": {
            "type": "Collected",
            "source": "Investigator"
          },
          "codeList": "CL.ROUTE"
        },
        {
          "OID": "IT.EC.ECLOC",
          "mandatory": false,
          "name": "ECLOC",
          "description": "Location of Dose Administration",
          "role": "Record Qualifier",
          "conceptProperty": "CONCPROP.BiomedicalConceptProperty_729",
          "dataType": "text",
          "length": 200,
          "origin": {
            "type": "Collected",
            "source": "Investigator"
          },
          "codeList": "CL.LOC"
        },
        {
          "OID": "IT.EC.ECLAT",
          "mandatory": false,
          "name": "ECLAT",
          "description": "Laterality",
          "role": "Variable Qualifier",
          "conceptProperty": "CONCPROP.BiomedicalConceptProperty_730",
          "dataType": "text",
          "length": 200,
          "origin": {
            "type": "Collected",
            "source": "Investigator"
          },
          "codeList": "CL.LAT"
        },
        {
          "OID": "IT.EC.ECDIR",
          "mandatory": false,
          "name": "ECDIR",
          "description": "Directionality",
          "role": "Variable Qualifier",
          "conceptProperty": "CONCPROP.BiomedicalConceptProperty_731",
          "dataType": "text",
          "length": null,
          "origin": {
            "type": "Collected",
            "source": "Investigator"
          },
          "codeList": "CL.DIR"
        },
        {
          "OID": "IT.EC.ECSTDTC",
          "mandatory": false,
          "name": "ECSTDTC",
          "description": "Start Date/Time of Treatment",
          "role": "Timing",
          "conceptProperty": "CONCPROP.BiomedicalConceptProperty_732",
          "dataType": "datetime",
          "origin": {
            "type": "Collected",
            "source": "Investigator"
          }
        },
        {
          "OID": "IT.EC.ECENDTC",
          "mandatory": false,
          "name": "ECENDTC",
          "description": "End Date/Time of Treatment",
          "role": "Timing",
          "conceptProperty": "CONCPROP.BiomedicalConceptProperty_733",
          "dataType": "datetime",
          "origin": {
            "type": "Collected",
            "source": "Investigator"
          }
        }
      ],
      "implementsConcept": "CONC.BiomedicalConcept_112"
    },
    {
      "OID": "IG.QS",
      "name": "QS",
      "description": "Questionnaires",
      "domain": "QS",
      "purpose": "Tabulation",
      "structure": "One record per questionnaire per question per time point per visit per subject",
      "isReferenceData": false,
      "keySequence": [
        "STUDYID",
        "USUBJID",
        "QSSEQ"
      ],
      "standard": "STD.SDTMIG",
      "observationClass": {
        "name": "FINDINGS"
      },
      "items": [
        {
          "OID": "IT.QS.STUDYID",
          "mandatory": true,
          "name": "STUDYID",
          "description": "Study Identifier",
          "role": "Identifier",
          "dataType": "text",
          "length": null,
          "origin": {
            "type": "Assigned",
            "source": "Sponsor"
          }
        },
        {
          "OID": "IT.QS.DOMAIN",
          "mandatory": true,
          "name": "DOMAIN",
          "description": "Domain Abbreviation",
          "role": "Identifier",
          "dataType": "text",
          "length": null,
          "origin": {
            "type": "Assigned",
            "source": "Sponsor"
          }
        },
        {
          "OID": "IT.QS.USUBJID",
          "mandatory": true,
          "name": "USUBJID",
          "description": "Unique Subject Identifier",
          "role": "Identifier",
          "dataType": "text",
          "length": null,
          "origin": {
            "type": "Assigned",
            "source": "Sponsor"
          }
        },
        {
          "OID": "IT.QS.QSSEQ",
          "mandatory": true,
          "name": "QSSEQ",
          "description": "Sequence Number",
          "role": "Identifier",
          "dataType": "integer",
          "length": null,
          "origin": {
            "type": "Derived",
            "source": "Sponsor"
          }
        },
        {
          "OID": "IT.QS.QSTESTCD",
          "mandatory": true,
          "name": "QSTESTCD",
          "description": "Question Short Name",
          "role": "Topic",
          "dataType": "text",
          "length": null,
          "origin": {
            "type": "Assigned",
            "source": "Sponsor"
          }
        },
        {
          "OID": "IT.QS.QSTEST",
          "mandatory": true,
          "name": "QSTEST",
          "description": "Question Name",
          "role": "Synonym Qualifier",
          "dataType": "text",
          "length": null,
          "origin": {
            "type": "Assigned",
            "source": "Sponsor"
          }
        },
        {
          "OID": "IT.QS.QSCAT",
          "mandatory": true,
          "name": "QSCAT",
          "description": "Category of Question",
          "role": "Grouping Qualifier",
          "dataType": "text",
          "length": null,
          "origin": {
            "type": "Assigned",
            "source": "Sponsor"
          },
          "codeList": "CL.QSCAT"
        },
        {
          "OID": "IT.QS.QSORRES",
          "mandatory": false,
          "name": "QSORRES",
          "description": "Finding in Original Units",
          "role": "Result Qualifier",
          "conceptProperty": "CONCPROP.BiomedicalConceptProperty_740",
          "dataType": "text",
          "length": 200,
          "origin": {
            "type": "Collected",
            "source": "Investigator"
          }
        },
        {
          "OID": "IT.QS.QSSTRESC",
          "mandatory": false,
          "name": "QSSTRESC",
          "description": "Character Result/Finding in Std Format",
          "role": "Result Qualifier",
          "dataType": "integer",
          "length": 1,
          "origin": {
            "type": "Derived",
            "source": "Sponsor"
          }
        },
        {
          "OID": "IT.QS.QSSTRESN",
          "mandatory": false,
          "name": "QSSTRESN",
          "description": "Numeric Finding in Standard Units",
          "role": "Result Qualifier",
          "dataType": "integer",
          "length": 1,
          "origin": {
            "type": "Derived",
            "source": "Sponsor"
          }
        },
        {
          "OID": "IT.QS.QSLOBXFL",
          "mandatory": false,
          "name": "QSLOBXFL",
          "description": "Last Observation Before Exposure Flag",
          "role": "Record Qualifier",
          "dataType": "text",
          "length": null,
          "origin": {
            "type": "Collected",
            "source": "Investigator"
          },
          "codeList": "CL.NY"
        },
        {
          "OID": "IT.QS.VISITNUM",
          "mandatory": false,
          "name": "VISITNUM",
          "description": "Visit Number",
          "role": "Timing",
          "dataType": "integer",
          "length": null,
          "origin": {
            "type": "Collected",
            "source": "Investigator"
          }
        },
        {
          "OID": "IT.QS.QSDTC",
          "mandatory": false,
          "name": "QSDTC",
          "description": "Date/Time of Finding",
          "role": "Timing",
          "conceptProperty": "CONCPROP.BiomedicalConceptProperty_741",
          "dataType": "datetime",
          "origin": {
            "type": "Collected",
            "source": "Investigator"
          }
        }
      ],
      "implementsConcept": "CONC.BiomedicalConcept_114"
    },
    {
      "OID": "IG.AE",
      "name": "AE",
      "description": "Adverse Events",
      "domain": "AE",
      "purpose": "Tabulation",
      "structure": "One record per adverse event per subject",
      "isReferenceData": false,
      "keySequence": [
        "STUDYID",
        "USUBJID",
        "AESEQ"
      ],
      "standard": "STD.SDTMIG",
      "observationClass": {
        "name": "EVENTS"
      },
      "items": [
        {
          "OID": "IT.AE.STUDYID",
          "mandatory": true,
          "name": "STUDYID",
          "description": "Study Identifier",
          "role": "Identifier",
          "dataType": "text",
          "length": null,
          "origin": {
            "type": "Assigned",
            "source": "Sponsor"
          }
        },
        {
          "OID": "IT.AE.DOMAIN",
          "mandatory": true,
          "name": "DOMAIN",
          "description": "Domain Abbreviation",
          "role": "Identifier",
          "dataType": "text",
          "length": null,
          "origin": {
            "type": "Assigned",
            "source": "Sponsor"
          }
        },
        {
          "OID": "IT.AE.USUBJID",
          "mandatory": true,
          "name": "USUBJID",
          "description": "Unique Subject Identifier",
          "role": "Identifier",
          "dataType": "text",
          "length": null,
          "origin": {
            "type": "Assigned",
            "source": "Sponsor"
          }
        },
        {
          "OID": "IT.AE.AESEQ",
          "mandatory": true,
          "name": "AESEQ",
          "description": "Sequence Number",
          "role": "Identifier",
          "dataType": "integer",
          "length": null,
          "origin": {
            "type": "Derived",
            "source": "Sponsor"
          }
        },
        {
          "OID": "IT.AE.AETERM",
          "mandatory": true,
          "name": "AETERM",
          "description": "Reported Term for the Adverse Event",
          "role": "Topic",
          "conceptProperty": "CONCPROP.BiomedicalConceptProperty_785",
          "dataType": "text",
          "length": 200,
          "origin": {
            "type": "Collected",
            "source": "Investigator"
          }
        },
        {
          "OID": "IT.AE.AELLT",
          "mandatory": false,
          "name": "AELLT",
          "description": "Lowest Level Term",
          "role": "Variable Qualifier",
          "dataType": "text",
          "length": null,
          "origin": {
            "type": "Assigned",
            "source": "Sponsor"
          }
        },
        {
          "OID": "IT.AE.AELLTCD",
          "mandatory": false,
          "name": "AELLTCD",
          "description": "Lowest Level Term Code",
          "role": "Variable Qualifier",
          "dataType": "integer",
          "length": null,
          "origin": {
            "type": "Assigned",
            "source": "Sponsor"
          }
        },
        {
          "OID": "IT.AE.AEDECOD",
          "mandatory": true,
          "name": "AEDECOD",
          "description": "Dictionary-Derived Term",
          "role": "Synonym Qualifier",
          "conceptProperty": "CONCPROP.BiomedicalConceptProperty_786",
          "dataType": "text",
          "length": 200,
          "origin": {
            "type": "Assigned",
            "source": "Sponsor"
          }
        },
        {
          "OID": "IT.AE.AEPTCD",
          "mandatory": false,
          "name": "AEPTCD",
          "description": "Preferred Term Code",
          "role": "Variable Qualifier",
          "dataType": "integer",
          "length": null,
          "origin": {
            "type": "Assigned",
            "source": "Sponsor"
          }
        },
        {
          "OID": "IT.AE.AEHLT",
          "mandatory": false,
          "name": "AEHLT",
          "description": "High Level Term",
          "role": "Variable Qualifier",
          "dataType": "text",
          "length": null,
          "origin": {
            "type": "Assigned",
            "source": "Sponsor"
          }
        },
        {
          "OID": "IT.AE.AEHLTCD",
          "mandatory": false,
          "name": "AEHLTCD",
          "description": "High Level Term Code",
          "role": "Variable Qualifier",
          "dataType": "integer",
          "length": null,
          "origin": {
            "type": "Assigned",
            "source": "Sponsor"
          }
        },
        {
          "OID": "IT.AE.AEHLGT",
          "mandatory": false,
          "name": "AEHLGT",
          "description": "High Level Group Term",
          "role": "Variable Qualifier",
          "dataType": "text",
          "length": null,
          "origin": {
            "type": "Assigned",
            "source": "Sponsor"
          }
        },
        {
          "OID": "IT.AE.AEHLGTCD",
          "mandatory": false,
          "name": "AEHLGTCD",
          "description": "High Level Group Term Code",
          "role": "Variable Qualifier",
          "dataType": "integer",
          "length": null,
          "origin": {
            "type": "Assigned",
            "source": "Sponsor"
          }
        },
        {
          "OID": "IT.AE.AECAT",
          "mandatory": false,
          "name": "AECAT",
          "description": "Category for Adverse Event",
          "role": "Grouping Qualifier",
          "dataType": "text",
          "length": 200,
          "origin": {
            "type": "Assigned",
            "source": "Sponsor"
          }
        },
        {
          "OID": "IT.AE.AESCAT",
          "mandatory": false,
          "name": "AESCAT",
          "description": "Subcategory for Adverse Event",
          "role": "Grouping Qualifier",
          "dataType": "text",
          "length": 200,
          "origin": {
            "type": "Assigned",
            "source": "Sponsor"
          }
        },
        {
          "OID": "IT.AE.AEPRESP",
          "mandatory": false,
          "name": "AEPRESP",
          "description": "Pre-Specified Adverse Event",
          "role": "Variable Qualifier",
          "dataType": "text",
          "length": 1,
          "origin": {
            "type": "Assigned",
            "source": "Sponsor"
          },
          "codeList": "CL.NY"
        },
        {
          "OID": "IT.AE.AEBODSYS",
          "mandatory": false,
          "name": "AEBODSYS",
          "description": "Body System or Organ Class",
          "role": "Record Qualifier",
          "dataType": "text",
          "length": null,
          "origin": {
            "type": "Collected",
            "source": "Investigator"
          }
        },
        {
          "OID": "IT.AE.AEBDSYCD",
          "mandatory": false,
          "name": "AEBDSYCD",
          "description": "Body System or Organ Class Code",
          "role": "Variable Qualifier",
          "dataType": "integer",
          "length": null,
          "origin": {
            "type": "Assigned",
            "source": "Sponsor"
          }
        },
        {
          "OID": "IT.AE.AESOC",
          "mandatory": false,
          "name": "AESOC",
          "description": "Primary System Organ Class",
          "role": "Variable Qualifier",
          "dataType": "text",
          "length": null,
          "origin": {
            "type": "Assigned",
            "source": "Sponsor"
          }
        },
        {
          "OID": "IT.AE.AESOCCD",
          "mandatory": false,
          "name": "AESOCCD",
          "description": "Primary System Organ Class Code",
          "role": "Variable Qualifier",
          "dataType": "integer",
          "length": null,
          "origin": {
            "type": "Assigned",
            "source": "Sponsor"
          }
        },
        {
          "OID": "IT.AE.AELOC",
          "mandatory": false,
          "name": "AELOC",
          "description": "Location of Event",
          "role": "Record Qualifier",
          "conceptProperty": "CONCPROP.BiomedicalConceptProperty_787",
          "dataType": "text",
          "length": 200,
          "origin": {
            "type": "Collected",
            "source": "Investigator"
          },
          "codeList": "CL.LOC"
        },
        {
          "OID": "IT.AE.AESEV",
          "mandatory": false,
          "name": "AESEV",
          "description": "Severity/Intensity",
          "role": "Record Qualifier",
          "conceptProperty": "CONCPROP.BiomedicalConceptProperty_788",
          "dataType": "text",
          "length": 200,
          "origin": {
            "type": "Collected",
            "source": "Investigator"
          },
          "codeList": "CL.AESEV"
        },
        {
          "OID": "IT.AE.AESER",
          "mandatory": false,
          "name": "AESER",
          "description": "Serious Event",
          "role": "Record Qualifier",
          "conceptProperty": "CONCPROP.BiomedicalConceptProperty_789",
          "dataType": "text",
          "length": 1,
          "origin": {
            "type": "Collected",
            "source": "Investigator"
          },
          "codeList": "CL.NY_NY"
        },
        {
          "OID": "IT.AE.AEACN",
          "mandatory": false,
          "name": "AEACN",
          "description": "Action Taken with Study Treatment",
          "role": "Record Qualifier",
          "conceptProperty": "CONCPROP.BiomedicalConceptProperty_790",
          "dataType": "text",
          "length": 200,
          "origin": {
            "type": "Collected",
            "source": "Investigator"
          },
          "codeList": "CL.ACN"
        },
        {
          "OID": "IT.AE.AEACNOTH",
          "mandatory": false,
          "name": "AEACNOTH",
          "description": "Other Action Taken",
          "role": "Record Qualifier",
          "conceptProperty": "CONCPROP.BiomedicalConceptProperty_791",
          "dataType": "text",
          "length": 200,
          "origin": {
            "type": "Collected",
            "source": "Investigator"
          }
        },
        {
          "OID": "IT.AE.AEREL",
          "mandatory": false,
          "name": "AEREL",
          "description": "Causality",
          "role": "Record Qualifier",
          "conceptProperty": "CONCPROP.BiomedicalConceptProperty_792",
          "dataType": "text",
          "length": 200,
          "origin": {
            "type": "Collected",
            "source": "Investigator"
          }
        },
        {
          "OID": "IT.AE.AERELNST",
          "mandatory": false,
          "name": "AERELNST",
          "description": "Relationship to Non-Study Treatment",
          "role": "Record Qualifier",
          "conceptProperty": "CONCPROP.BiomedicalConceptProperty_793",
          "dataType": "text",
          "length": 200,
          "origin": {
            "type": "Collected",
            "source": "Investigator"
          }
        },
        {
          "OID": "IT.AE.AEPATT",
          "mandatory": false,
          "name": "AEPATT",
          "description": "Pattern of Adverse Event",
          "role": "Record Qualifier",
          "conceptProperty": "CONCPROP.BiomedicalConceptProperty_794",
          "dataType": "text",
          "length": 200,
          "origin": {
            "type": "Collected",
            "source": "Investigator"
          }
        },
        {
          "OID": "IT.AE.AEOUT",
          "mandatory": false,
          "name": "AEOUT",
          "description": "Outcome of Adverse Event",
          "role": "Record Qualifier",
          "conceptProperty": "CONCPROP.BiomedicalConceptProperty_795",
          "dataType": "text",
          "length": 200,
          "origin": {
            "type": "Collected",
            "source": "Investigator"
          },
          "codeList": "CL.OUT"
        },
        {
          "OID": "IT.AE.AESCAN",
          "mandatory": false,
          "name": "AESCAN",
          "description": "Involves Cancer",
          "role": "Record Qualifier",
          "conceptProperty": "CONCPROP.BiomedicalConceptProperty_796",
          "dataType": "text",
          "length": 1,
          "origin": {
            "type": "Collected",
            "source": "Investigator"
          },
          "codeList": "CL.NY_NY"
        },
        {
          "OID": "IT.AE.AESCONG",
          "mandatory": false,
          "name": "AESCONG",
          "description": "Congenital Anomaly or Birth Defect",
          "role": "Record Qualifier",
          "conceptProperty": "CONCPROP.BiomedicalConceptProperty_797",
          "dataType": "text",
          "length": 1,
          "origin": {
            "type": "Collected",
            "source": "Investigator"
          },
          "codeList": "CL.NY_NY"
        },
        {
          "OID": "IT.AE.AESDISAB",
          "mandatory": false,
          "name": "AESDISAB",
          "description": "Persist or Signif Disability/Incapacity",
          "role": "Record Qualifier",
          "conceptProperty": "CONCPROP.BiomedicalConceptProperty_798",
          "dataType": "text",
          "length": 1,
          "origin": {
            "type": "Collected",
            "source": "Investigator"
          },
          "codeList": "CL.NY_NY"
        },
        {
          "OID": "IT.AE.AESDTH",
          "mandatory": false,
          "name": "AESDTH",
          "description": "Results in Death",
          "role": "Record Qualifier",
          "conceptProperty": "CONCPROP.BiomedicalConceptProperty_799",
          "dataType": "text",
          "length": 1,
          "origin": {
            "type": "Collected",
            "source": "Investigator"
          },
          "codeList": "CL.NY_NY"
        },
        {
          "OID": "IT.AE.AESHOSP",
          "mandatory": false,
          "name": "AESHOSP",
          "description": "Requires or Prolongs Hospitalization",
          "role": "Record Qualifier",
          "conceptProperty": "CONCPROP.BiomedicalConceptProperty_800",
          "dataType": "text",
          "length": 1,
          "origin": {
            "type": "Collected",
            "source": "Investigator"
          },
          "codeList": "CL.NY_NY"
        },
        {
          "OID": "IT.AE.AESLIFE",
          "mandatory": false,
          "name": "AESLIFE",
          "description": "Is Life Threatening",
          "role": "Record Qualifier",
          "conceptProperty": "CONCPROP.BiomedicalConceptProperty_801",
          "dataType": "text",
          "length": 1,
          "origin": {
            "type": "Collected",
            "source": "Investigator"
          },
          "codeList": "CL.NY_NY"
        },
        {
          "OID": "IT.AE.AESOD",
          "mandatory": false,
          "name": "AESOD",
          "description": "Occurred with Overdose",
          "role": "Record Qualifier",
          "conceptProperty": "CONCPROP.BiomedicalConceptProperty_802",
          "dataType": "text",
          "length": 1,
          "origin": {
            "type": "Collected",
            "source": "Investigator"
          },
          "codeList": "CL.NY_NY"
        },
        {
          "OID": "IT.AE.AESMIE",
          "mandatory": false,
          "name": "AESMIE",
          "description": "Other Medically Important Serious Event",
          "role": "Record Qualifier",
          "conceptProperty": "CONCPROP.BiomedicalConceptProperty_803",
          "dataType": "text",
          "length": 1,
          "origin": {
            "type": "Collected",
            "source": "Investigator"
          },
          "codeList": "CL.NY_NY"
        },
        {
          "OID": "IT.AE.AECONTRT",
          "mandatory": false,
          "name": "AECONTRT",
          "description": "Concomitant or Additional Trtmnt Given",
          "role": "Record Qualifier",
          "conceptProperty": "CONCPROP.BiomedicalConceptProperty_804",
          "dataType": "text",
          "length": 1,
          "origin": {
            "type": "Collected",
            "source": "Investigator"
          },
          "codeList": "CL.NY_NY"
        },
        {
          "OID": "IT.AE.AETOXGR",
          "mandatory": false,
          "name": "AETOXGR",
          "description": "Standard Toxicity Grade",
          "role": "Record Qualifier",
          "conceptProperty": "CONCPROP.BiomedicalConceptProperty_805",
          "dataType": "text",
          "length": 1,
          "origin": {
            "type": "Collected",
            "source": "Investigator"
          }
        },
        {
          "OID": "IT.AE.AESTDTC",
          "mandatory": false,
          "name": "AESTDTC",
          "description": "Start Date/Time of Adverse Event",
          "role": "Timing",
          "conceptProperty": "CONCPROP.BiomedicalConceptProperty_806",
          "dataType": "datetime",
          "origin": {
            "type": "Collected",
            "source": "Investigator"
          }
        },
        {
          "OID": "IT.AE.AEENDTC",
          "mandatory": false,
          "name": "AEENDTC",
          "description": "End Date/Time of Adverse Event",
          "role": "Timing",
          "conceptProperty": "CONCPROP.BiomedicalConceptProperty_807",
          "dataType": "datetime",
          "origin": {
            "type": "Collected",
            "source": "Investigator"
          }
        },
        {
          "OID": "IT.AE.AEENRF",
          "mandatory": false,
          "name": "AEENRF",
          "description": "End Relative to Reference Period",
          "role": "Timing",
          "conceptProperty": "CONCPROP.BiomedicalConceptProperty_808",
          "dataType": "text",
          "length": 20,
          "origin": {
            "type": "Assigned",
            "source": "Sponsor"
          },
          "codeList": "CL.STENRF"
        },
        {
          "OID": "IT.AE.AEENRTPT",
          "mandatory": false,
          "name": "AEENRTPT",
          "description": "End Relative to Reference Time Point",
          "role": "Timing",
          "conceptProperty": "CONCPROP.BiomedicalConceptProperty_809",
          "dataType": "text",
          "length": 20,
          "origin": {
            "type": "Assigned",
            "source": "Sponsor"
          },
          "codeList": "CL.STENRF"
        },
        {
          "OID": "IT.AE.AEENTPT",
          "mandatory": false,
          "name": "AEENTPT",
          "description": "End Reference Time Point",
          "role": "Timing",
          "conceptProperty": "CONCPROP.BiomedicalConceptProperty_810",
          "dataType": "text",
          "length": 20,
          "origin": {
            "type": "Assigned",
            "source": "Sponsor"
          }
        }
      ],
      "implementsConcept": "CONC.BiomedicalConcept_135"
    },
    {
      "OID": "IG.MK",
      "name": "MK",
      "description": "Musculoskeletal System Findings",
      "domain": "MK",
      "purpose": "Tabulation",
      "structure": "One record per assessment per visit per subject",
      "isReferenceData": false,
      "keySequence": [
        "STUDYID",
        "USUBJID",
        "MKSEQ"
      ],
      "standard": "STD.SDTMIG",
      "observationClass": {
        "name": "FINDINGS"
      },
      "items": [
        {
          "OID": "IT.MK.STUDYID",
          "mandatory": true,
          "name": "STUDYID",
          "description": "Study Identifier",
          "role": "Identifier",
          "dataType": "text",
          "length": null,
          "origin": {
            "type": "Assigned",
            "source": "Sponsor"
          }
        },
        {
          "OID": "IT.MK.DOMAIN",
          "mandatory": true,
          "name": "DOMAIN",
          "description": "Domain Abbreviation",
          "role": "Identifier",
          "dataType": "text",
          "length": null,
          "origin": {
            "type": "Assigned",
            "source": "Sponsor"
          }
        },
        {
          "OID": "IT.MK.USUBJID",
          "mandatory": true,
          "name": "USUBJID",
          "description": "Unique Subject Identifier",
          "role": "Identifier",
          "dataType": "text",
          "length": null,
          "origin": {
            "type": "Assigned",
            "source": "Sponsor"
          }
        },
        {
          "OID": "IT.MK.MKSEQ",
          "mandatory": true,
          "name": "MKSEQ",
          "description": "Sequence Number",
          "role": "Identifier",
          "dataType": "integer",
          "length": null,
          "origin": {
            "type": "Derived",
            "source": "Sponsor"
          }
        },
        {
          "OID": "IT.MK.MKTESTCD",
          "mandatory": true,
          "name": "MKTESTCD",
          "description": "Short Name of Musculoskeletal Test",
          "role": "Topic",
          "dataType": "text",
          "length": null,
          "origin": {
            "type": "Assigned",
            "source": "Sponsor"
          },
          "codeList": "CL.MUSCTSCD"
        },
        {
          "OID": "IT.MK.MKTEST",
          "mandatory": true,
          "name": "MKTEST",
          "description": "Name of Musculoskeletal Test",
          "role": "Synonym Qualifier",
          "dataType": "text",
          "length": null,
          "origin": {
            "type": "Assigned",
            "source": "Sponsor"
          },
          "codeList": "CL.MUSCTS"
        },
        {
          "OID": "IT.MK.MKORRES",
          "mandatory": false,
          "name": "MKORRES",
          "description": "Result or Finding in Original Units",
          "role": "Result Qualifier",
          "conceptProperty": "CONCPROP.BiomedicalConceptProperty_920",
          "dataType": "float",
          "length": 8,
          "displayFormat": "8.3",
          "significantDigits": 3,
          "origin": {
            "type": "Collected",
            "source": "Investigator"
          }
        },
        {
          "OID": "IT.MK.MKORRESU",
          "mandatory": false,
          "name": "MKORRESU",
          "description": "Original Units",
          "role": "Variable Qualifier",
          "conceptProperty": "CONCPROP.BiomedicalConceptProperty_921",
          "dataType": "text",
          "length": 20,
          "origin": {
            "type": "Collected",
            "source": "Investigator"
          },
          "codeList": "CL.UNIT"
        },
        {
          "OID": "IT.MK.MKSTRESC",
          "mandatory": false,
          "name": "MKSTRESC",
          "description": "Character Result/Finding in Std Format",
          "role": "Result Qualifier",
          "dataType": "float",
          "length": 8,
          "displayFormat": "8.3",
          "significantDigits": 3,
          "origin": {
            "type": "Derived",
            "source": "Sponsor"
          }
        },
        {
          "OID": "IT.MK.MKSTRESN",
          "mandatory": false,
          "name": "MKSTRESN",
          "description": "Numeric Result/Finding in Standard Units",
          "role": "Result Qualifier",
          "dataType": "float",
          "length": 8,
          "displayFormat": "8.3",
          "significantDigits": 3,
          "origin": {
            "type": "Derived",
            "source": "Sponsor"
          }
        },
        {
          "OID": "IT.MK.MKSTRESU",
          "mandatory": false,
          "name": "MKSTRESU",
          "description": "Standard Units",
          "role": "Variable Qualifier",
          "dataType": "text",
          "length": 20,
          "origin": {
            "type": "Assigned",
            "source": "Sponsor"
          },
          "codeList": "CL.UNIT"
        },
        {
          "OID": "IT.MK.MKLOC",
          "mandatory": false,
          "name": "MKLOC",
          "description": "Location Used for the Measurement",
          "role": "Record Qualifier",
          "conceptProperty": "CONCPROP.BiomedicalConceptProperty_922",
          "dataType": "text",
          "length": null,
          "origin": {
            "type": "Collected",
            "source": "Investigator"
          },
          "codeList": "CL.LOC"
        },
        {
          "OID": "IT.MK.MKLAT",
          "mandatory": false,
          "name": "MKLAT",
          "description": "Laterality",
          "role": "Variable Qualifier",
          "conceptProperty": "CONCPROP.BiomedicalConceptProperty_923",
          "dataType": "text",
          "length": null,
          "origin": {
            "type": "Assigned",
            "source": "Sponsor"
          },
          "codeList": "CL.LAT"
        },
        {
          "OID": "IT.MK.MKMETHOD",
          "mandatory": false,
          "name": "MKMETHOD",
          "description": "Method of Test or Examination",
          "role": "Record Qualifier",
          "conceptProperty": "CONCPROP.BiomedicalConceptProperty_924",
          "dataType": "text",
          "length": null,
          "origin": {
            "type": "Collected",
            "source": "Investigator"
          },
          "codeList": "CL.METHOD"
        },
        {
          "OID": "IT.MK.MKLOBXFL",
          "mandatory": false,
          "name": "MKLOBXFL",
          "description": "Last Observation Before Exposure Flag",
          "role": "Record Qualifier",
          "dataType": "text",
          "length": null,
          "origin": {
            "type": "Collected",
            "source": "Investigator"
          },
          "codeList": "CL.NY"
        },
        {
          "OID": "IT.MK.VISITNUM",
          "mandatory": false,
          "name": "VISITNUM",
          "description": "Visit Number",
          "role": "Timing",
          "dataType": "integer",
          "length": null,
          "origin": {
            "type": "Collected",
            "source": "Investigator"
          }
        },
        {
          "OID": "IT.MK.MKDTC",
          "mandatory": false,
          "name": "MKDTC",
          "description": "Date/Time of Collection",
          "role": "Timing",
          "conceptProperty": "CONCPROP.BiomedicalConceptProperty_925",
          "dataType": "datetime",
          "origin": {
            "type": "Collected",
            "source": "Investigator"
          }
        }
      ],
      "implementsConcept": "CONC.BiomedicalConcept_160"
    },
    {
      "OID": "IG.TS",
      "name": "TS",
      "description": "Trial Summary",
      "domain": "TS",
      "purpose": "Tabulation",
      "structure": "One record per trial summary parameter value",
      "isReferenceData": true,
      "keySequence": [
        "STUDYID",
        "TSPARMCD",
        "TSSEQ"
      ],
      "standard": "STD.SDTMIG",
      "observationClass": {
        "name": "TRIAL DESIGN"
      },
      "items": [
        {
          "OID": "IT.TS.STUDYID",
          "mandatory": true,
          "name": "STUDYID",
          "description": "Study Identifier",
          "role": "Identifier",
          "dataType": "text",
          "length": null,
          "origin": {
            "type": "Assigned",
            "source": "Sponsor"
          }
        },
        {
          "OID": "IT.TS.DOMAIN",
          "mandatory": true,
          "name": "DOMAIN",
          "description": "Domain Abbreviation",
          "role": "Identifier",
          "dataType": "text",
          "length": null,
          "origin": {
            "type": "Assigned",
            "source": "Sponsor"
          }
        },
        {
          "OID": "IT.TS.TSSEQ",
          "mandatory": true,
          "name": "TSSEQ",
          "description": "Sequence Number",
          "role": "Identifier",
          "dataType": "integer",
          "length": null,
          "origin": {
            "type": "Derived",
            "source": "Sponsor"
          }
        },
        {
          "OID": "IT.TS.TSPARMCD",
          "mandatory": true,
          "name": "TSPARMCD",
          "description": "Trial Summary Parameter Short Name",
          "role": "Topic",
          "conceptProperty": "CONCPROP.BiomedicalConceptProperty_949",
          "dataType": "text",
          "length": null,
          "codeList": "CL.TSPARMCD"
        },
        {
          "OID": "IT.TS.TSPARM",
          "mandatory": true,
          "name": "TSPARM",
          "description": "Trial Summary Parameter",
          "role": "Synonym Qualifier",
          "conceptProperty": "CONCPROP.BiomedicalConceptProperty_950",
          "dataType": "text",
          "length": null,
          "origin": {
            "type": "Assigned",
            "source": "Sponsor"
          },
          "codeList": "CL.TSPARM"
        },
        {
          "OID": "IT.TS.TSVAL",
          "mandatory": false,
          "name": "TSVAL",
          "description": "Parameter Value",
          "role": "Result Qualifier",
          "conceptProperty": "CONCPROP.BiomedicalConceptProperty_951",
          "dataType": "text",
          "length": null,
          "origin": {
            "type": "Collected",
            "source": "Investigator"
          }
        },
        {
          "OID": "IT.TS.TSVALCD",
          "mandatory": false,
          "name": "TSVALCD",
          "description": "Parameter Value Code",
          "role": "Result Qualifier",
          "conceptProperty": "CONCPROP.BiomedicalConceptProperty_952",
          "dataType": "text",
          "length": null,
          "origin": {
            "type": "Collected",
            "source": "Investigator"
          }
        },
        {
          "OID": "IT.TS.TSVCDREF",
          "mandatory": false,
          "name": "TSVCDREF",
          "description": "Name of the Reference Terminology",
          "role": "Result Qualifier",
          "conceptProperty": "CONCPROP.BiomedicalConceptProperty_953",
          "dataType": "text",
          "length": null,
          "origin": {
            "type": "Collected",
            "source": "Investigator"
          },
          "codeList": "CL.DICTNAM"
        },
        {
          "OID": "IT.TS.TSVCDVER",
          "mandatory": false,
          "name": "TSVCDVER",
          "description": "Version of the Reference Terminology",
          "role": "Result Qualifier",
          "conceptProperty": "CONCPROP.BiomedicalConceptProperty_954",
          "dataType": "text",
          "length": null,
          "origin": {
            "type": "Collected",
            "source": "Investigator"
          }
        }
      ],
      "implementsConcept": "CONC.BiomedicalConcept_162",
      "slices": [
        {
          "OID": "VL.TS.TSPARMCD",
          "name": "VL_TS_TSPARMCD",
          "type": "ValueList",
          "wasDerivedFrom": "IT.TS.TSPARMCD",
          "items": [
            {
              "OID": "IT.TS.TSPARMCD.COMPTRT",
              "mandatory": false,
              "name": "TSPARMCD",
              "dataType": "text",
              "length": 200,
              "origin": {
                "type": "Protocol",
                "source": "Sponsor"
              },
              "applicableWhen": [
                "WC.TS.8c559472"
              ]
            },
            {
              "OID": "IT.TS.TSPARMCD.CRMDUR",
              "mandatory": false,
              "name": "TSPARMCD",
              "dataType": "text",
              "length": 200,
              "origin": {
                "type": "Protocol",
                "source": "Sponsor"
              },
              "applicableWhen": [
                "WC.TS.bcc79825"
              ]
            },
            {
              "OID": "IT.TS.TSPARMCD.INDIC",
              "mandatory": false,
              "name": "TSPARMCD",
              "dataType": "text",
              "length": 200,
              "origin": {
                "type": "Protocol",
                "source": "Sponsor"
              },
              "applicableWhen": [
                "WC.TS.e5769859"
              ]
            },
            {
              "OID": "IT.TS.TSPARMCD.INTTYPE",
              "mandatory": false,
              "name": "TSPARMCD",
              "dataType": "text",
              "length": 200,
              "origin": {
                "type": "Protocol",
                "source": "Sponsor"
              },
              "applicableWhen": [
                "WC.TS.d3e89d3f"
              ]
            },
            {
              "OID": "IT.TS.TSPARMCD.NARMS",
              "mandatory": false,
              "name": "TSPARMCD",
              "dataType": "text",
              "length": 200,
              "origin": {
                "type": "Protocol",
                "source": "Sponsor"
              },
              "applicableWhen": [
                "WC.TS.efd2a465"
              ]
            },
            {
              "OID": "IT.TS.TSPARMCD.OBJPRIM",
              "mandatory": false,
              "name": "TSPARMCD",
              "dataType": "text",
              "length": 200,
              "origin": {
                "type": "Protocol",
                "source": "Sponsor"
              },
              "applicableWhen": [
                "WC.TS.fe255586"
              ]
            },
            {
              "OID": "IT.TS.TSPARMCD.OBJSEC",
              "mandatory": false,
              "name": "TSPARMCD",
              "dataType": "text",
              "length": 200,
              "origin": {
                "type": "Protocol",
                "source": "Sponsor"
              },
              "applicableWhen": [
                "WC.TS.62794b6c"
              ]
            },
            {
              "OID": "IT.TS.TSPARMCD.OUTMSPRI",
              "mandatory": false,
              "name": "TSPARMCD",
              "dataType": "text",
              "length": 200,
              "origin": {
                "type": "Protocol",
                "source": "Sponsor"
              },
              "applicableWhen": [
                "WC.TS.4266ae9d"
              ]
            },
            {
              "OID": "IT.TS.TSPARMCD.OUTMSSEC",
              "mandatory": false,
              "name": "TSPARMCD",
              "dataType": "text",
              "length": 200,
              "origin": {
                "type": "Protocol",
                "source": "Sponsor"
              },
              "applicableWhen": [
                "WC.TS.1d6311e2"
              ]
            },
            {
              "OID": "IT.TS.TSPARMCD.SPONSOR",
              "mandatory": false,
              "name": "TSPARMCD",
              "dataType": "text",
              "length": 200,
              "origin": {
                "type": "Protocol",
                "source": "Sponsor"
              },
              "applicableWhen": [
                "WC.TS.e06f8db5"
              ]
            },
            {
              "OID": "IT.TS.TSPARMCD.TITLE",
              "mandatory": false,
              "name": "TSPARMCD",
              "dataType": "text",
              "length": 200,
              "origin": {
                "type": "Protocol",
                "source": "Sponsor"
              },
              "applicableWhen": [
                "WC.TS.d94c6616"
              ]
            },
            {
              "OID": "IT.TS.TSPARMCD.TRT",
              "mandatory": false,
              "name": "TSPARMCD",
              "dataType": "text",
              "length": 200,
              "origin": {
                "type": "Protocol",
                "source": "Sponsor"
              },
              "applicableWhen": [
                "WC.TS.d368cfb2"
              ]
            }
          ]
        }
      ]
    },
    {
      "OID": "IG.FT",
      "name": "FT",
      "description": "Functional Tests",
      "domain": "FT",
      "purpose": "Tabulation",
      "structure": "One record per Functional Test finding per time point per visit per subject",
      "isReferenceData": false,
      "keySequence": [
        "STUDYID",
        "USUBJID",
        "FTSEQ"
      ],
      "standard": "STD.SDTMIG",
      "observationClass": {
        "name": "FINDINGS"
      },
      "items": [
        {
          "OID": "IT.FT.STUDYID",
          "mandatory": true,
          "name": "STUDYID",
          "description": "Study Identifier",
          "role": "Identifier",
          "dataType": "text",
          "length": null,
          "origin": {
            "type": "Assigned",
            "source": "Sponsor"
          }
        },
        {
          "OID": "IT.FT.DOMAIN",
          "mandatory": true,
          "name": "DOMAIN",
          "description": "Domain Abbreviation",
          "role": "Identifier",
          "dataType": "text",
          "length": null,
          "origin": {
            "type": "Assigned",
            "source": "Sponsor"
          }
        },
        {
          "OID": "IT.FT.USUBJID",
          "mandatory": true,
          "name": "USUBJID",
          "description": "Unique Subject Identifier",
          "role": "Identifier",
          "dataType": "text",
          "length": null,
          "origin": {
            "type": "Assigned",
            "source": "Sponsor"
          }
        },
        {
          "OID": "IT.FT.FTSEQ",
          "mandatory": true,
          "name": "FTSEQ",
          "description": "Sequence Number",
          "role": "Identifier",
          "dataType": "integer",
          "length": null,
          "origin": {
            "type": "Derived",
            "source": "Sponsor"
          }
        },
        {
          "OID": "IT.FT.FTTESTCD",
          "mandatory": true,
          "name": "FTTESTCD",
          "description": "Short Name of Test",
          "role": "Topic",
          "dataType": "text",
          "length": null,
          "origin": {
            "type": "Assigned",
            "source": "Sponsor"
          }
        },
        {
          "OID": "IT.FT.FTTEST",
          "mandatory": true,
          "name": "FTTEST",
          "description": "Name of Test",
          "role": "Synonym Qualifier",
          "dataType": "text",
          "length": null,
          "origin": {
            "type": "Assigned",
            "source": "Sponsor"
          }
        },
        {
          "OID": "IT.FT.FTCAT",
          "mandatory": true,
          "name": "FTCAT",
          "description": "Category",
          "role": "Grouping Qualifier",
          "dataType": "text",
          "length": null,
          "origin": {
            "type": "Assigned",
            "source": "Sponsor"
          },
          "codeList": "CL.FTCAT"
        },
        {
          "OID": "IT.FT.FTSCAT",
          "mandatory": false,
          "name": "FTSCAT",
          "description": "Subcategory",
          "role": "Grouping Qualifier",
          "dataType": "text",
          "length": null,
          "origin": {
            "type": "Assigned",
            "source": "Sponsor"
          }
        },
        {
          "OID": "IT.FT.FTORRES",
          "mandatory": false,
          "name": "FTORRES",
          "description": "Result or Finding in Original Units",
          "role": "Result Qualifier",
          "dataType": "float",
          "length": 4,
          "displayFormat": "5.2",
          "significantDigits": 2,
          "origin": {
            "type": "Collected",
            "source": "Investigator"
          }
        },
        {
          "OID": "IT.FT.FTORRESU",
          "mandatory": false,
          "name": "FTORRESU",
          "description": "Original Units",
          "role": "Variable Qualifier",
          "dataType": "text",
          "length": 1,
          "origin": {
            "type": "Collected",
            "source": "Investigator"
          },
          "codeList": "CL.UNIT"
        },
        {
          "OID": "IT.FT.FTSTRESC",
          "mandatory": false,
          "name": "FTSTRESC",
          "description": "Result or Finding in Standard Format",
          "role": "Result Qualifier",
          "dataType": "float",
          "length": 4,
          "displayFormat": "5.2",
          "significantDigits": 2,
          "origin": {
            "type": "Derived",
            "source": "Sponsor"
          }
        },
        {
          "OID": "IT.FT.FTSTRESN",
          "mandatory": false,
          "name": "FTSTRESN",
          "description": "Numeric Result/Finding in Standard Units",
          "role": "Result Qualifier",
          "dataType": "float",
          "length": 4,
          "displayFormat": "5.2",
          "significantDigits": 2,
          "origin": {
            "type": "Derived",
            "source": "Sponsor"
          }
        },
        {
          "OID": "IT.FT.FTSTRESU",
          "mandatory": false,
          "name": "FTSTRESU",
          "description": "Standard Units",
          "role": "Variable Qualifier",
          "dataType": "text",
          "length": 1,
          "origin": {
            "type": "Assigned",
            "source": "Sponsor"
          },
          "codeList": "CL.UNIT"
        },
        {
          "OID": "IT.FT.FTSTAT",
          "mandatory": false,
          "name": "FTSTAT",
          "description": "Completion Status",
          "role": "Record Qualifier",
          "dataType": "text",
          "length": null,
          "origin": {
            "type": "Collected",
            "source": "Investigator"
          },
          "codeList": "CL.ND"
        },
        {
          "OID": "IT.FT.FTREASND",
          "mandatory": false,
          "name": "FTREASND",
          "description": "Reason Not Done",
          "role": "Record Qualifier",
          "dataType": "text",
          "length": null,
          "origin": {
            "type": "Collected",
            "source": "Investigator"
          }
        },
        {
          "OID": "IT.FT.FTLOBXFL",
          "mandatory": false,
          "name": "FTLOBXFL",
          "description": "Last Observation Before Exposure Flag",
          "role": "Record Qualifier",
          "dataType": "text",
          "length": null,
          "origin": {
            "type": "Collected",
            "source": "Investigator"
          },
          "codeList": "CL.NY"
        },
        {
          "OID": "IT.FT.VISITNUM",
          "mandatory": false,
          "name": "VISITNUM",
          "description": "Visit Number",
          "role": "Timing",
          "dataType": "integer",
          "length": null,
          "origin": {
            "type": "Collected",
            "source": "Investigator"
          }
        },
        {
          "OID": "IT.FT.FTDTC",
          "mandatory": false,
          "name": "FTDTC",
          "description": "Date/Time of Test",
          "role": "Timing",
          "dataType": "datetime",
          "origin": {
            "type": "Collected",
            "source": "Investigator"
          }
        }
      ],
      "implementsConcept": "CONC.BiomedicalConcept_172"
    },
    {
      "OID": "IG.TA",
      "name": "TA",
      "description": "Trial Arms",
      "domain": "TA",
      "purpose": "Tabulation",
      "structure": "One record per planned Element per Arm",
      "isReferenceData": true,
      "keySequence": [
        "STUDYID",
        "ARMCD",
        "ETCD"
      ],
      "standard": "STD.SDTMIG",
      "observationClass": {
        "name": "TRIAL DESIGN"
      },
      "items": [
        {
          "OID": "IT.TA.STUDYID",
          "mandatory": true,
          "name": "STUDYID",
          "description": "Study Identifier",
          "role": "Identifier",
          "dataType": "text",
          "length": null,
          "origin": {
            "type": "Assigned",
            "source": "Sponsor"
          }
        },
        {
          "OID": "IT.TA.DOMAIN",
          "mandatory": true,
          "name": "DOMAIN",
          "description": "Domain Abbreviation",
          "role": "Identifier",
          "dataType": "text",
          "length": null,
          "origin": {
            "type": "Assigned",
            "source": "Sponsor"
          }
        },
        {
          "OID": "IT.TA.ARMCD",
          "mandatory": true,
          "name": "ARMCD",
          "description": "Planned Arm Code",
          "role": "Topic",
          "dataType": "text",
          "length": null,
          "origin": {
            "type": "Assigned",
            "source": "Sponsor"
          },
          "codeList": "CL.ARMCD"
        },
        {
          "OID": "IT.TA.ARM",
          "mandatory": true,
          "name": "ARM",
          "description": "Description of Planned Arm",
          "role": "Synonym Qualifier",
          "dataType": "text",
          "length": null,
          "origin": {
            "type": "Assigned",
            "source": "Sponsor"
          },
          "codeList": "CL.ARM"
        },
        {
          "OID": "IT.TA.TAETORD",
          "mandatory": true,
          "name": "TAETORD",
          "description": "Planned Order of Element within Arm",
          "role": "Timing",
          "dataType": "integer",
          "length": null,
          "origin": {
            "type": "Collected",
            "source": "Investigator"
          }
        },
        {
          "OID": "IT.TA.ETCD",
          "mandatory": true,
          "name": "ETCD",
          "description": "Element Code",
          "role": "Record Qualifier",
          "dataType": "text",
          "length": null,
          "origin": {
            "type": "Collected",
            "source": "Investigator"
          },
          "codeList": "CL.ETCD"
        },
        {
          "OID": "IT.TA.ELEMENT",
          "mandatory": false,
          "name": "ELEMENT",
          "description": "Description of Element",
          "role": "Synonym Qualifier",
          "dataType": "text",
          "length": null,
          "origin": {
            "type": "Assigned",
            "source": "Sponsor"
          },
          "codeList": "CL.ELEMENT"
        },
        {
          "OID": "IT.TA.TABRANCH",
          "mandatory": false,
          "name": "TABRANCH",
          "description": "Branch",
          "role": "Rule",
          "dataType": "text",
          "length": null,
          "origin": {
            "type": "Assigned",
            "source": "Sponsor"
          }
        },
        {
          "OID": "IT.TA.TATRANS",
          "mandatory": false,
          "name": "TATRANS",
          "description": "Transition Rule",
          "role": "Rule",
          "dataType": "text",
          "length": null,
          "origin": {
            "type": "Assigned",
            "source": "Sponsor"
          }
        },
        {
          "OID": "IT.TA.EPOCH",
          "mandatory": true,
          "name": "EPOCH",
          "description": "Epoch",
          "role": "Timing",
          "dataType": "text",
          "length": null,
          "origin": {
            "type": "Derived",
            "source": "Sponsor"
          },
          "codeList": "CL.EPOCH"
        }
      ]
    },
    {
      "OID": "IG.TE",
      "name": "TE",
      "description": "Trial Elements",
      "domain": "TE",
      "purpose": "Tabulation",
      "structure": "One record per planned Element",
      "isReferenceData": true,
      "keySequence": [
        "STUDYID",
        "ETCD"
      ],
      "standard": "STD.SDTMIG",
      "observationClass": {
        "name": "TRIAL DESIGN"
      },
      "items": [
        {
          "OID": "IT.TE.STUDYID",
          "mandatory": true,
          "name": "STUDYID",
          "description": "Study Identifier",
          "role": "Identifier",
          "dataType": "text",
          "length": null,
          "origin": {
            "type": "Assigned",
            "source": "Sponsor"
          }
        },
        {
          "OID": "IT.TE.DOMAIN",
          "mandatory": true,
          "name": "DOMAIN",
          "description": "Domain Abbreviation",
          "role": "Identifier",
          "dataType": "text",
          "length": null,
          "origin": {
            "type": "Assigned",
            "source": "Sponsor"
          }
        },
        {
          "OID": "IT.TE.ETCD",
          "mandatory": true,
          "name": "ETCD",
          "description": "Element Code",
          "role": "Topic",
          "dataType": "text",
          "length": null,
          "origin": {
            "type": "Assigned",
            "source": "Sponsor"
          },
          "codeList": "CL.ETCD"
        },
        {
          "OID": "IT.TE.ELEMENT",
          "mandatory": true,
          "name": "ELEMENT",
          "description": "Description of Element",
          "role": "Synonym Qualifier",
          "dataType": "text",
          "length": null,
          "origin": {
            "type": "Assigned",
            "source": "Sponsor"
          },
          "codeList": "CL.ELEMENT"
        },
        {
          "OID": "IT.TE.TESTRL",
          "mandatory": true,
          "name": "TESTRL",
          "description": "Rule for Start of Element",
          "role": "Rule",
          "dataType": "text",
          "length": null,
          "origin": {
            "type": "Assigned",
            "source": "Sponsor"
          }
        }
      ]
    },
    {
      "OID": "IG.SV",
      "name": "SV",
      "description": "Subject Visits",
      "domain": "SV",
      "purpose": "Tabulation",
      "structure": "One record per actual or planned visit per subject",
      "isReferenceData": false,
      "keySequence": [
        "STUDYID",
        "USUBJID",
        "VISITNUM"
      ],
      "standard": "STD.SDTMIG",
      "observationClass": {
        "name": "SPECIAL-PURPOSE"
      },
      "items": [
        {
          "OID": "IT.SV.STUDYID",
          "mandatory": true,
          "name": "STUDYID",
          "description": "Study Identifier",
          "role": "Identifier",
          "dataType": "text",
          "length": null,
          "origin": {
            "type": "Assigned",
            "source": "Sponsor"
          }
        },
        {
          "OID": "IT.SV.DOMAIN",
          "mandatory": true,
          "name": "DOMAIN",
          "description": "Domain Abbreviation",
          "role": "Identifier",
          "dataType": "text",
          "length": null,
          "origin": {
            "type": "Assigned",
            "source": "Sponsor"
          }
        },
        {
          "OID": "IT.SV.USUBJID",
          "mandatory": true,
          "name": "USUBJID",
          "description": "Unique Subject Identifier",
          "role": "Identifier",
          "dataType": "text",
          "length": null,
          "origin": {
            "type": "Assigned",
            "source": "Sponsor"
          }
        },
        {
          "OID": "IT.SV.VISITNUM",
          "mandatory": true,
          "name": "VISITNUM",
          "description": "Visit Number",
          "role": "Topic",
          "dataType": "integer",
          "length": null,
          "origin": {
            "type": "Assigned",
            "source": "Sponsor"
          }
        },
        {
          "OID": "IT.SV.VISIT",
          "mandatory": false,
          "name": "VISIT",
          "description": "Visit Name",
          "role": "Synonym Qualifier",
          "dataType": "text",
          "length": null,
          "origin": {
            "type": "Assigned",
            "source": "Sponsor"
          }
        },
        {
          "OID": "IT.SV.SVPRESP",
          "mandatory": false,
          "name": "SVPRESP",
          "description": "Pre-specified",
          "role": "Variable Qualifier",
          "dataType": "text",
          "length": null,
          "origin": {
            "type": "Assigned",
            "source": "Sponsor"
          },
          "codeList": "CL.NY"
        },
        {
          "OID": "IT.SV.SVOCCUR",
          "mandatory": false,
          "name": "SVOCCUR",
          "description": "Occurrence",
          "role": "Record Qualifier",
          "dataType": "text",
          "length": null,
          "origin": {
            "type": "Collected",
            "source": "Investigator"
          },
          "codeList": "CL.NY"
        },
        {
          "OID": "IT.SV.SVCNTMOD",
          "mandatory": false,
          "name": "SVCNTMOD",
          "description": "Contact Mode",
          "role": "Record Qualifier",
          "dataType": "text",
          "length": null,
          "origin": {
            "type": "Collected",
            "source": "Investigator"
          },
          "codeList": "CL.CNTMODE"
        },
        {
          "OID": "IT.SV.SVSTDTC",
          "mandatory": false,
          "name": "SVSTDTC",
          "description": "Start Date/Time of Observation",
          "role": "Timing",
          "dataType": "datetime",
          "origin": {
            "type": "Collected",
            "source": "Investigator"
          }
        },
        {
          "OID": "IT.SV.SVENDTC",
          "mandatory": false,
          "name": "SVENDTC",
          "description": "End Date/Time of Observation",
          "role": "Timing",
          "dataType": "datetime",
          "origin": {
            "type": "Collected",
            "source": "Investigator"
          }
        }
      ]
    },
    {
      "OID": "IG.SE",
      "name": "SE",
      "description": "Subject Elements",
      "domain": "SE",
      "purpose": "Tabulation",
      "structure": "One record per actual Element per subject",
      "isReferenceData": false,
      "keySequence": [
        "STUDYID",
        "USUBJID",
        "SESTDTC"
      ],
      "standard": "STD.SDTMIG",
      "observationClass": {
        "name": "SPECIAL-PURPOSE"
      },
      "items": [
        {
          "OID": "IT.SE.STUDYID",
          "mandatory": true,
          "name": "STUDYID",
          "description": "Study Identifier",
          "role": "Identifier",
          "dataType": "text",
          "length": null,
          "origin": {
            "type": "Assigned",
            "source": "Sponsor"
          }
        },
        {
          "OID": "IT.SE.DOMAIN",
          "mandatory": true,
          "name": "DOMAIN",
          "description": "Domain Abbreviation",
          "role": "Identifier",
          "dataType": "text",
          "length": null,
          "origin": {
            "type": "Assigned",
            "source": "Sponsor"
          }
        },
        {
          "OID": "IT.SE.USUBJID",
          "mandatory": true,
          "name": "USUBJID",
          "description": "Unique Subject Identifier",
          "role": "Identifier",
          "dataType": "text",
          "length": null,
          "origin": {
            "type": "Assigned",
            "source": "Sponsor"
          }
        },
        {
          "OID": "IT.SE.SESEQ",
          "mandatory": true,
          "name": "SESEQ",
          "description": "Sequence Number",
          "role": "Identifier",
          "dataType": "integer",
          "length": null,
          "origin": {
            "type": "Derived",
            "source": "Sponsor"
          }
        },
        {
          "OID": "IT.SE.ETCD",
          "mandatory": true,
          "name": "ETCD",
          "description": "Element Code",
          "role": "Topic",
          "dataType": "text",
          "length": null,
          "origin": {
            "type": "Assigned",
            "source": "Sponsor"
          },
          "codeList": "CL.ETCD"
        },
        {
          "OID": "IT.SE.ELEMENT",
          "mandatory": false,
          "name": "ELEMENT",
          "description": "Description of Element",
          "role": "Synonym Qualifier",
          "dataType": "text",
          "length": null,
          "origin": {
            "type": "Assigned",
            "source": "Sponsor"
          },
          "codeList": "CL.ELEMENT"
        },
        {
          "OID": "IT.SE.EPOCH",
          "mandatory": false,
          "name": "EPOCH",
          "description": "Epoch",
          "role": "Timing",
          "dataType": "text",
          "length": null,
          "origin": {
            "type": "Derived",
            "source": "Sponsor"
          },
          "codeList": "CL.EPOCH"
        },
        {
          "OID": "IT.SE.SESTDTC",
          "mandatory": true,
          "name": "SESTDTC",
          "description": "Start Date/Time of Element",
          "role": "Timing",
          "dataType": "datetime",
          "origin": {
            "type": "Collected",
            "source": "Investigator"
          }
        },
        {
          "OID": "IT.SE.SEENDTC",
          "mandatory": false,
          "name": "SEENDTC",
          "description": "End Date/Time of Element",
          "role": "Timing",
          "dataType": "datetime",
          "origin": {
            "type": "Collected",
            "source": "Investigator"
          }
        }
      ]
    }
  ],
  "conditions": [
    {
      "OID": "COND.TS.TSPARMCD.4b2c750e",
      "rangeChecks": [
        {
          "comparator": "EQ",
          "checkValues": [
            "COMPTRT"
          ],
          "item": "IT.TS.TSPARMCD",
          "softHard": "Soft"
        }
      ]
    },
    {
      "OID": "COND.TS.TSPARMCD.745804cb",
      "rangeChecks": [
        {
          "comparator": "EQ",
          "checkValues": [
            "CRMDUR"
          ],
          "item": "IT.TS.TSPARMCD",
          "softHard": "Soft"
        }
      ]
    },
    {
      "OID": "COND.TS.TSPARMCD.82dcbb4a",
      "rangeChecks": [
        {
          "comparator": "EQ",
          "checkValues": [
            "INDIC"
          ],
          "item": "IT.TS.TSPARMCD",
          "softHard": "Soft"
        }
      ]
    },
    {
      "OID": "COND.TS.TSPARMCD.de0404c1",
      "rangeChecks": [
        {
          "comparator": "EQ",
          "checkValues": [
            "INTTYPE"
          ],
          "item": "IT.TS.TSPARMCD",
          "softHard": "Soft"
        }
      ]
    },
    {
      "OID": "COND.TS.TSPARMCD.1d8ed13f",
      "rangeChecks": [
        {
          "comparator": "EQ",
          "checkValues": [
            "NARMS"
          ],
          "item": "IT.TS.TSPARMCD",
          "softHard": "Soft"
        }
      ]
    },
    {
      "OID": "COND.TS.TSPARMCD.cccc9db0",
      "rangeChecks": [
        {
          "comparator": "EQ",
          "checkValues": [
            "OBJPRIM"
          ],
          "item": "IT.TS.TSPARMCD",
          "softHard": "Soft"
        }
      ]
    },
    {
      "OID": "COND.TS.TSPARMCD.863c5858",
      "rangeChecks": [
        {
          "comparator": "EQ",
          "checkValues": [
            "OBJSEC"
          ],
          "item": "IT.TS.TSPARMCD",
          "softHard": "Soft"
        }
      ]
    },
    {
      "OID": "COND.TS.TSPARMCD.69b92c86",
      "rangeChecks": [
        {
          "comparator": "EQ",
          "checkValues": [
            "OUTMSPRI"
          ],
          "item": "IT.TS.TSPARMCD",
          "softHard": "Soft"
        }
      ]
    },
    {
      "OID": "COND.TS.TSPARMCD.df99032e",
      "rangeChecks": [
        {
          "comparator": "EQ",
          "checkValues": [
            "OUTMSSEC"
          ],
          "item": "IT.TS.TSPARMCD",
          "softHard": "Soft"
        }
      ]
    },
    {
      "OID": "COND.TS.TSPARMCD.5b1e67a5",
      "rangeChecks": [
        {
          "comparator": "EQ",
          "checkValues": [
            "SPONSOR"
          ],
          "item": "IT.TS.TSPARMCD",
          "softHard": "Soft"
        }
      ]
    },
    {
      "OID": "COND.TS.TSPARMCD.90f47ac3",
      "rangeChecks": [
        {
          "comparator": "EQ",
          "checkValues": [
            "TITLE"
          ],
          "item": "IT.TS.TSPARMCD",
          "softHard": "Soft"
        }
      ]
    },
    {
      "OID": "COND.TS.TSPARMCD.e2190e21",
      "rangeChecks": [
        {
          "comparator": "EQ",
          "checkValues": [
            "TRT"
          ],
          "item": "IT.TS.TSPARMCD",
          "softHard": "Soft"
        }
      ]
    }
  ],
  "whereClauses": [
    {
      "OID": "WC.TS.8c559472",
      "conditions": [
        "COND.TS.TSPARMCD.4b2c750e"
      ]
    },
    {
      "OID": "WC.TS.bcc79825",
      "conditions": [
        "COND.TS.TSPARMCD.745804cb"
      ]
    },
    {
      "OID": "WC.TS.e5769859",
      "conditions": [
        "COND.TS.TSPARMCD.82dcbb4a"
      ]
    },
    {
      "OID": "WC.TS.d3e89d3f",
      "conditions": [
        "COND.TS.TSPARMCD.de0404c1"
      ]
    },
    {
      "OID": "WC.TS.efd2a465",
      "conditions": [
        "COND.TS.TSPARMCD.1d8ed13f"
      ]
    },
    {
      "OID": "WC.TS.fe255586",
      "conditions": [
        "COND.TS.TSPARMCD.cccc9db0"
      ]
    },
    {
      "OID": "WC.TS.62794b6c",
      "conditions": [
        "COND.TS.TSPARMCD.863c5858"
      ]
    },
    {
      "OID": "WC.TS.4266ae9d",
      "conditions": [
        "COND.TS.TSPARMCD.69b92c86"
      ]
    },
    {
      "OID": "WC.TS.1d6311e2",
      "conditions": [
        "COND.TS.TSPARMCD.df99032e"
      ]
    },
    {
      "OID": "WC.TS.e06f8db5",
      "conditions": [
        "COND.TS.TSPARMCD.5b1e67a5"
      ]
    },
    {
      "OID": "WC.TS.d94c6616",
      "conditions": [
        "COND.TS.TSPARMCD.90f47ac3"
      ]
    },
    {
      "OID": "WC.TS.d368cfb2",
      "conditions": [
        "COND.TS.TSPARMCD.e2190e21"
      ]
    }
  ],
  "codeLists": [
    {
      "OID": "CL.ARMCD",
      "name": "ARM Code",
      "dataType": "text",
      "isNonStandard": true,
      "codeListItems": [
        {
          "codedValue": "Placebo"
        },
        {
          "codedValue": "Xanomeline Low Dose"
        },
        {
          "codedValue": "Xanomeline High Dose"
        }
      ]
    },
    {
      "OID": "CL.ARM",
      "name": "ARM",
      "dataType": "text",
      "isNonStandard": true,
      "codeListItems": [
        {
          "codedValue": "Placebo"
        },
        {
          "codedValue": "Xanomeline Low Dose"
        },
        {
          "codedValue": "Xanomeline High Dose"
        }
      ]
    },
    {
      "OID": "CL.ELEMENT",
      "name": "Description of Element",
      "dataType": "text",
      "isNonStandard": true,
      "codeListItems": [
        {
          "codedValue": "Screening"
        },
        {
          "codedValue": "Placebo"
        },
        {
          "codedValue": "Low"
        },
        {
          "codedValue": "High - Start"
        },
        {
          "codedValue": "High - Middle"
        },
        {
          "codedValue": "High - End"
        },
        {
          "codedValue": "Follow up"
        }
      ]
    },
    {
      "OID": "CL.ETCD",
      "name": "Element Code",
      "dataType": "text",
      "isNonStandard": true,
      "codeListItems": [
        {
          "codedValue": "EL1",
          "decode": "Screening"
        },
        {
          "codedValue": "EL2",
          "decode": "Placebo"
        },
        {
          "codedValue": "EL3",
          "decode": "Low"
        },
        {
          "codedValue": "EL4",
          "decode": "High - Start"
        },
        {
          "codedValue": "EL5",
          "decode": "High - Middle"
        },
        {
          "codedValue": "EL6",
          "decode": "High - End"
        },
        {
          "codedValue": "EL7",
          "decode": "Follow up"
        }
      ]
    },
    {
      "OID": "CL.EPOCH",
      "name": "Epoch",
      "dataType": "text",
      "standard": "STD.SDTMCT",
      "coding": [
        {
          "code": "C99079",
          "codeSystem": "nci:ExtCodeID"
        }
      ],
      "codeListItems": [
        {
          "codedValue": "Screening",
          "coding": {
            "code": "C202487",
            "codeSystem": "nci:ExtCodeID"
          }
        },
        {
          "codedValue": "Treatment 1",
          "coding": {
            "code": "C101526",
            "codeSystem": "nci:ExtCodeID"
          }
        },
        {
          "codedValue": "Treatment 2",
          "coding": {
            "code": "C101526",
            "codeSystem": "nci:ExtCodeID"
          }
        },
        {
          "codedValue": "Treatment 3",
          "coding": {
            "code": "C101526",
            "codeSystem": "nci:ExtCodeID"
          }
        },
        {
          "codedValue": "Follow-up",
          "coding": {
            "code": "C202578",
            "codeSystem": "nci:ExtCodeID"
          }
        }
      ]
    },
    {
      "OID": "CL.ad42d7e1",
      "name": "DSDECOD Response Codes",
      "dataType": "text",
      "isNonStandard": true,
      "codeListItems": [
        {
          "codedValue": "INFORMED CONSENT OBTAINED",
          "coding": [
            {
              "code": "C16735",
              "codeSystem": "http://www.cdisc.org",
              "codeSystemVersion": "2026-05-26",
              "decode": "INFORMED CONSENT OBTAINED"
            }
          ]
        }
      ]
    },
    {
      "OID": "CL.39e500d6",
      "name": "DSDECOD Response Codes",
      "dataType": "text",
      "isNonStandard": true,
      "codeListItems": [
        {
          "codedValue": "RANDOMIZED",
          "coding": [
            {
              "code": "C114209",
              "codeSystem": "http://www.cdisc.org",
              "codeSystemVersion": "2026-05-26",
              "decode": "RANDOMIZED"
            }
          ]
        }
      ]
    },
    {
      "OID": "CL.30a86bdd",
      "name": "PRDECOD Response Codes",
      "dataType": "text",
      "isNonStandard": true,
      "codeListItems": [
        {
          "codedValue": "X-RAY",
          "coding": [
            {
              "code": "C38101",
              "codeSystem": "http://www.cdisc.org",
              "codeSystemVersion": "2026-07-14",
              "decode": "X-RAY"
            }
          ]
        }
      ]
    },
    {
      "OID": "CL.20024ecd",
      "name": "VSORRESU Response Codes",
      "dataType": "text",
      "isNonStandard": true,
      "codeListItems": [
        {
          "codedValue": "beats/min",
          "coding": [
            {
              "code": "C49673",
              "codeSystem": "http://www.cdisc.org",
              "codeSystemVersion": "2026-05-26",
              "decode": "beats/min"
            }
          ]
        }
      ]
    },
    {
      "OID": "CL.da016f8d",
      "name": "VSORRESU Response Codes",
      "dataType": "text",
      "isNonStandard": true,
      "codeListItems": [
        {
          "codedValue": "breaths/min",
          "coding": [
            {
              "code": "C49674",
              "codeSystem": "http://www.cdisc.org",
              "codeSystemVersion": "2026-05-26",
              "decode": "breaths/min"
            }
          ]
        }
      ]
    },
    {
      "OID": "CL.798c8fb6",
      "name": "EGORRESU Response Codes",
      "dataType": "text",
      "isNonStandard": true,
      "codeListItems": [
        {
          "codedValue": "deg",
          "coding": [
            {
              "code": "C68667",
              "codeSystem": "http://www.cdisc.org",
              "codeSystemVersion": "2026-05-26",
              "decode": "deg"
            }
          ]
        }
      ]
    },
    {
      "OID": "CL.6751dc8e",
      "name": "PRDECOD Response Codes",
      "dataType": "text",
      "isNonStandard": true,
      "codeListItems": [
        {
          "codedValue": "CT SCAN",
          "coding": [
            {
              "code": "C17204",
              "codeSystem": "http://www.cdisc.org",
              "codeSystemVersion": "2026-07-14",
              "decode": "CT SCAN"
            }
          ]
        }
      ]
    },
    {
      "OID": "CL.5ae118a0",
      "name": "PRLOC Response Codes",
      "dataType": "text",
      "isNonStandard": true,
      "codeListItems": [
        {
          "codedValue": "CHEST",
          "coding": [
            {
              "code": "C25389",
              "codeSystem": "http://www.cdisc.org",
              "codeSystemVersion": "2026-07-14",
              "decode": "CHEST"
            }
          ]
        }
      ]
    },
    {
      "OID": "CL.35f151cb",
      "name": "PRDECOD Response Codes",
      "dataType": "text",
      "isNonStandard": true,
      "codeListItems": [
        {
          "codedValue": "MRI",
          "coding": [
            {
              "code": "C16809",
              "codeSystem": "http://www.cdisc.org",
              "codeSystemVersion": "2024-12-16",
              "decode": "MRI"
            }
          ]
        }
      ]
    },
    {
      "OID": "CL.bfc80e1f",
      "name": "PRLOC Response Codes",
      "dataType": "text",
      "isNonStandard": true,
      "codeListItems": [
        {
          "codedValue": "BRAIN",
          "coding": [
            {
              "code": "C12439",
              "codeSystem": "http://www.cdisc.org",
              "codeSystemVersion": "2024-12-16",
              "decode": "BRAIN"
            }
          ]
        }
      ]
    },
    {
      "OID": "CL.af8f8a19",
      "name": "LBSPEC Response Codes",
      "dataType": "text",
      "isNonStandard": true,
      "codeListItems": [
        {
          "codedValue": "BLOOD",
          "coding": [
            {
              "code": "C12434",
              "codeSystem": "http://www.cdisc.org",
              "codeSystemVersion": "2026-05-26",
              "decode": "BLOOD"
            }
          ]
        }
      ]
    },
    {
      "OID": "CL.1aeb2034",
      "name": "LBSPEC Response Codes",
      "dataType": "text",
      "isNonStandard": true,
      "codeListItems": [
        {
          "codedValue": "ERYTHROCYTES",
          "coding": [
            {
              "code": "C12521",
              "codeSystem": "http://www.cdisc.org",
              "codeSystemVersion": "2026-05-26",
              "decode": "ERYTHROCYTES"
            }
          ]
        }
      ]
    },
    {
      "OID": "CL.a00fe0a9",
      "name": "LBORRESU Response Codes",
      "dataType": "text",
      "isNonStandard": true,
      "codeListItems": [
        {
          "codedValue": "fL",
          "coding": [
            {
              "code": "C64780",
              "codeSystem": "http://www.cdisc.org",
              "codeSystemVersion": "2026-05-26",
              "decode": "fL"
            }
          ]
        }
      ]
    },
    {
      "OID": "CL.68e5ab5a",
      "name": "LBORRESU Response Codes",
      "dataType": "text",
      "isNonStandard": true,
      "codeListItems": [
        {
          "codedValue": "10^9/L",
          "coding": [
            {
              "code": "C67255",
              "codeSystem": "http://www.cdisc.org",
              "codeSystemVersion": "2026-05-26",
              "decode": "10^9/L"
            }
          ]
        }
      ]
    },
    {
      "OID": "CL.2c53325c",
      "name": "LBORRESU Response Codes",
      "dataType": "text",
      "isNonStandard": true,
      "codeListItems": [
        {
          "codedValue": "10^6/L",
          "coding": [
            {
              "code": "C67452",
              "codeSystem": "http://www.cdisc.org",
              "codeSystemVersion": "2026-05-26",
              "decode": "10^6/L"
            }
          ]
        }
      ]
    },
    {
      "OID": "CL.9e69169e",
      "name": "LBSPEC Response Codes",
      "dataType": "text",
      "isNonStandard": true,
      "codeListItems": [
        {
          "codedValue": "SERUM OR PLASMA",
          "coding": [
            {
              "code": "C105706",
              "codeSystem": "http://www.cdisc.org",
              "codeSystemVersion": "2026-05-26",
              "decode": "SERUM OR PLASMA"
            }
          ]
        }
      ]
    },
    {
      "OID": "CL.c75bb752",
      "name": "MBTSTDTL Response Codes",
      "dataType": "text",
      "isNonStandard": true,
      "codeListItems": [
        {
          "codedValue": "DETECTION",
          "coding": [
            {
              "code": "C174330",
              "codeSystem": "http://www.cdisc.org",
              "codeSystemVersion": "2026-05-26",
              "decode": "DETECTION"
            }
          ]
        }
      ]
    },
    {
      "OID": "CL.bbc50609",
      "name": "MBSPEC Response Codes",
      "dataType": "text",
      "isNonStandard": true,
      "codeListItems": [
        {
          "codedValue": "SERUM",
          "coding": [
            {
              "code": "C13325",
              "codeSystem": "http://www.cdisc.org",
              "codeSystemVersion": "2026-05-26",
              "decode": "SERUM"
            }
          ]
        }
      ]
    },
    {
      "OID": "CL.bdb73f2b",
      "name": "MBMETHOD Response Codes",
      "dataType": "text",
      "isNonStandard": true,
      "codeListItems": [
        {
          "codedValue": "LINE PROBE ASSAY",
          "coding": [
            {
              "code": "C102656",
              "codeSystem": "http://www.cdisc.org",
              "codeSystemVersion": "2026-05-26",
              "decode": "LINE PROBE ASSAY"
            }
          ]
        }
      ]
    },
    {
      "OID": "CL.5183f82c",
      "name": "LBSPEC Response Codes",
      "dataType": "text",
      "isNonStandard": true,
      "codeListItems": [
        {
          "codedValue": "URINE",
          "coding": [
            {
              "code": "C13283",
              "codeSystem": "http://www.cdisc.org",
              "codeSystemVersion": "2026-05-26",
              "decode": "URINE"
            }
          ]
        }
      ]
    },
    {
      "OID": "CL.5fc938fc",
      "name": "LBSPEC Response Codes",
      "dataType": "text",
      "isNonStandard": true,
      "codeListItems": [
        {
          "codedValue": "STOOL",
          "coding": [
            {
              "code": "C13234",
              "codeSystem": "http://www.cdisc.org",
              "codeSystemVersion": "2026-05-26",
              "decode": "STOOL"
            }
          ]
        }
      ]
    },
    {
      "OID": "CL.b8dca4b6",
      "name": "QSEVAL Response Codes",
      "dataType": "text",
      "isNonStandard": true,
      "codeListItems": [
        {
          "codedValue": "CAREGIVER",
          "coding": [
            {
              "code": "C17445",
              "codeSystem": "http://www.cdisc.org",
              "codeSystemVersion": "2026-05-26",
              "decode": "CAREGIVER"
            }
          ]
        }
      ]
    },
    {
      "OID": "CL.d8fccc32",
      "name": "DSDECOD Response Codes",
      "dataType": "text",
      "isNonStandard": true,
      "codeListItems": [
        {
          "codedValue": "SITE TRANSFER",
          "coding": [
            {
              "code": "C186208",
              "codeSystem": "http://www.cdisc.org",
              "codeSystemVersion": "2026-05-26",
              "decode": "SITE TRANSFER"
            }
          ]
        }
      ]
    },
    {
      "OID": "CL.a3e2e2db",
      "name": "DSDECOD Response Codes",
      "dataType": "text",
      "isNonStandard": true,
      "codeListItems": [
        {
          "codedValue": "WITHDRAWAL OF CONSENT FROM PROTOCOL-SPECIFIED ACTIVITY",
          "coding": [
            {
              "code": "C170610",
              "codeSystem": "http://www.cdisc.org",
              "codeSystemVersion": "2026-05-26",
              "decode": "WITHDRAWAL OF CONSENT FROM PROTOCOL-SPECIFIED ACTIVITY"
            }
          ]
        }
      ]
    },
    {
      "OID": "CL.7cfd6cc5",
      "name": "VSORRESU Response Codes",
      "dataType": "text",
      "isNonStandard": true,
      "codeListItems": [
        {
          "codedValue": "mmHg",
          "coding": [
            {
              "code": "C49670",
              "codeSystem": "http://www.cdisc.org",
              "codeSystemVersion": "2026-05-26",
              "decode": "mmHg"
            }
          ]
        }
      ]
    },
    {
      "OID": "CL.1e00cfce",
      "name": "TSPARMCD Response Codes",
      "dataType": "text",
      "isNonStandard": true,
      "codeListItems": [
        {
          "codedValue": "EGCTMON",
          "coding": [
            {
              "code": "C119561",
              "codeSystem": "http://www.cdisc.org",
              "codeSystemVersion": "2025-07-01",
              "decode": "EGCTMON"
            }
          ]
        }
      ]
    },
    {
      "OID": "CL.NCOMPLT",
      "name": "Completion/Reason for Non-Completion",
      "dataType": "text",
      "standard": "STD.SDTMCT",
      "coding": [
        {
          "code": "C66727",
          "codeSystem": "nci:ExtCodeID"
        }
      ],
      "codeListItems": [
        {
          "codedValue": "__PLACEHOLDER__",
          "decode": "__PLACEHOLDER__"
        }
      ]
    },
    {
      "OID": "CL.DSCAT",
      "name": "Category of Disposition Event",
      "dataType": "text",
      "standard": "STD.SDTMCT",
      "coding": [
        {
          "code": "C74558",
          "codeSystem": "nci:ExtCodeID"
        }
      ],
      "codeListItems": [
        {
          "codedValue": "__PLACEHOLDER__",
          "decode": "__PLACEHOLDER__"
        }
      ]
    },
    {
      "OID": "CL.DSSCAT",
      "name": "Subcategory for Disposition Event",
      "dataType": "text",
      "standard": "STD.SDTMCT",
      "coding": [
        {
          "code": "C170443",
          "codeSystem": "nci:ExtCodeID"
        }
      ],
      "codeListItems": [
        {
          "codedValue": "__PLACEHOLDER__",
          "decode": "__PLACEHOLDER__"
        }
      ]
    },
    {
      "OID": "CL.IECAT",
      "name": "Category of Inclusion/Exclusion",
      "dataType": "text",
      "standard": "STD.SDTMCT",
      "coding": [
        {
          "code": "C66797",
          "codeSystem": "nci:ExtCodeID"
        }
      ],
      "codeListItems": [
        {
          "codedValue": "__PLACEHOLDER__",
          "decode": "__PLACEHOLDER__"
        }
      ]
    },
    {
      "OID": "CL.NY",
      "name": "No Yes Response",
      "dataType": "text",
      "standard": "STD.SDTMCT",
      "coding": [
        {
          "code": "C66742",
          "codeSystem": "nci:ExtCodeID"
        }
      ],
      "codeListItems": [
        {
          "codedValue": "__PLACEHOLDER__",
          "decode": "__PLACEHOLDER__"
        }
      ]
    },
    {
      "OID": "CL.AGEU",
      "name": "Age Unit",
      "dataType": "text",
      "standard": "STD.SDTMCT",
      "coding": [
        {
          "code": "C66781",
          "codeSystem": "nci:ExtCodeID"
        }
      ],
      "codeListItems": [
        {
          "codedValue": "__PLACEHOLDER__",
          "decode": "__PLACEHOLDER__"
        }
      ]
    },
    {
      "OID": "CL.SEX",
      "name": "Sex",
      "dataType": "text",
      "standard": "STD.SDTMCT",
      "coding": [
        {
          "code": "C66731",
          "codeSystem": "nci:ExtCodeID"
        }
      ],
      "codeListItems": [
        {
          "codedValue": "__PLACEHOLDER__",
          "decode": "__PLACEHOLDER__"
        }
      ]
    },
    {
      "OID": "CL.SCTESTCD",
      "name": "Subject Characteristic Test Code",
      "dataType": "text",
      "standard": "STD.SDTMCT",
      "coding": [
        {
          "code": "C74559",
          "codeSystem": "nci:ExtCodeID"
        }
      ],
      "codeListItems": [
        {
          "codedValue": "__PLACEHOLDER__",
          "decode": "__PLACEHOLDER__"
        }
      ]
    },
    {
      "OID": "CL.SCTEST",
      "name": "Subject Characteristic Test Name",
      "dataType": "text",
      "standard": "STD.SDTMCT",
      "coding": [
        {
          "code": "C103330",
          "codeSystem": "nci:ExtCodeID"
        }
      ],
      "codeListItems": [
        {
          "codedValue": "__PLACEHOLDER__",
          "decode": "__PLACEHOLDER__"
        }
      ]
    },
    {
      "OID": "CL.STENRF",
      "name": "Relation to Reference Period",
      "dataType": "text",
      "standard": "STD.SDTMCT",
      "coding": [
        {
          "code": "C66728",
          "codeSystem": "nci:ExtCodeID"
        }
      ],
      "codeListItems": [
        {
          "codedValue": "__PLACEHOLDER__",
          "decode": "__PLACEHOLDER__"
        }
      ]
    },
    {
      "OID": "CL.NY_Y",
      "name": "No Yes Response (Subset Y)",
      "dataType": "text",
      "standard": "STD.SDTMCT",
      "coding": [
        {
          "code": "C66742",
          "codeSystem": "nci:ExtCodeID"
        }
      ],
      "codeListItems": [
        {
          "codedValue": "__PLACEHOLDER__",
          "decode": "__PLACEHOLDER__"
        }
      ]
    },
    {
      "OID": "CL.NY_NY",
      "name": "No Yes Response (Subset NY)",
      "dataType": "text",
      "standard": "STD.SDTMCT",
      "coding": [
        {
          "code": "C66742",
          "codeSystem": "nci:ExtCodeID"
        }
      ],
      "codeListItems": [
        {
          "codedValue": "__PLACEHOLDER__",
          "decode": "__PLACEHOLDER__"
        }
      ]
    },
    {
      "OID": "CL.UNIT",
      "name": "Unit",
      "dataType": "text",
      "standard": "STD.SDTMCT",
      "coding": [
        {
          "code": "C71620",
          "codeSystem": "nci:ExtCodeID"
        }
      ],
      "codeListItems": [
        {
          "codedValue": "__PLACEHOLDER__",
          "decode": "__PLACEHOLDER__"
        }
      ]
    },
    {
      "OID": "CL.FREQ",
      "name": "Frequency",
      "dataType": "text",
      "standard": "STD.SDTMCT",
      "coding": [
        {
          "code": "C71113",
          "codeSystem": "nci:ExtCodeID"
        }
      ],
      "codeListItems": [
        {
          "codedValue": "__PLACEHOLDER__",
          "decode": "__PLACEHOLDER__"
        }
      ]
    },
    {
      "OID": "CL.PROCEDUR",
      "name": "Procedure",
      "dataType": "text",
      "standard": "STD.SDTMCT",
      "coding": [
        {
          "code": "C101858",
          "codeSystem": "nci:ExtCodeID"
        }
      ],
      "codeListItems": [
        {
          "codedValue": "CT SCAN",
          "decode": "CAT Scan",
          "coding": {
            "code": "C17204",
            "codeSystem": "nci:ExtCodeID"
          }
        },
        {
          "codedValue": "MRI",
          "decode": "Magnetic Resonance Imaging",
          "coding": {
            "code": "C16809",
            "codeSystem": "nci:ExtCodeID"
          }
        },
        {
          "codedValue": "X-RAY",
          "decode": "Static X-Ray",
          "coding": {
            "code": "C38101",
            "codeSystem": "nci:ExtCodeID"
          }
        }
      ]
    },
    {
      "OID": "CL.LOC",
      "name": "Anatomical Location",
      "dataType": "text",
      "standard": "STD.SDTMCT",
      "coding": [
        {
          "code": "C74456",
          "codeSystem": "nci:ExtCodeID"
        }
      ],
      "codeListItems": [
        {
          "codedValue": "BRAIN",
          "decode": "Nervous System, Brain",
          "coding": {
            "code": "C12439",
            "codeSystem": "nci:ExtCodeID"
          }
        },
        {
          "codedValue": "CHEST",
          "decode": "Chest",
          "coding": {
            "code": "C25389",
            "codeSystem": "nci:ExtCodeID"
          }
        }
      ]
    },
    {
      "OID": "CL.LAT",
      "name": "Laterality",
      "dataType": "text",
      "standard": "STD.SDTMCT",
      "coding": [
        {
          "code": "C99073",
          "codeSystem": "nci:ExtCodeID"
        }
      ],
      "codeListItems": [
        {
          "codedValue": "__PLACEHOLDER__",
          "decode": "__PLACEHOLDER__"
        }
      ]
    },
    {
      "OID": "CL.VSTESTCD",
      "name": "Vital Signs Test Code",
      "dataType": "text",
      "standard": "STD.SDTMCT",
      "coding": [
        {
          "code": "C66741",
          "codeSystem": "nci:ExtCodeID"
        }
      ],
      "codeListItems": [
        {
          "codedValue": "__PLACEHOLDER__",
          "decode": "__PLACEHOLDER__"
        }
      ]
    },
    {
      "OID": "CL.VSTEST",
      "name": "Vital Signs Test Name",
      "dataType": "text",
      "standard": "STD.SDTMCT",
      "coding": [
        {
          "code": "C67153",
          "codeSystem": "nci:ExtCodeID"
        }
      ],
      "codeListItems": [
        {
          "codedValue": "__PLACEHOLDER__",
          "decode": "__PLACEHOLDER__"
        }
      ]
    },
    {
      "OID": "CL.POSITION",
      "name": "Position",
      "dataType": "text",
      "standard": "STD.SDTMCT",
      "coding": [
        {
          "code": "C71148",
          "codeSystem": "nci:ExtCodeID"
        }
      ],
      "codeListItems": [
        {
          "codedValue": "__PLACEHOLDER__",
          "decode": "__PLACEHOLDER__"
        }
      ]
    },
    {
      "OID": "CL.VSRESU",
      "name": "Units for Vital Signs Results",
      "dataType": "text",
      "standard": "STD.SDTMCT",
      "coding": [
        {
          "code": "C66770",
          "codeSystem": "nci:ExtCodeID"
        }
      ],
      "codeListItems": [
        {
          "codedValue": "__PLACEHOLDER__",
          "decode": "__PLACEHOLDER__"
        }
      ]
    },
    {
      "OID": "CL.EGTESTCD",
      "name": "ECG Test Code",
      "dataType": "text",
      "standard": "STD.SDTMCT",
      "coding": [
        {
          "code": "C71153",
          "codeSystem": "nci:ExtCodeID"
        }
      ],
      "codeListItems": [
        {
          "codedValue": "__PLACEHOLDER__",
          "decode": "__PLACEHOLDER__"
        }
      ]
    },
    {
      "OID": "CL.EGTEST",
      "name": "ECG Test Name",
      "dataType": "text",
      "standard": "STD.SDTMCT",
      "coding": [
        {
          "code": "C71152",
          "codeSystem": "nci:ExtCodeID"
        }
      ],
      "codeListItems": [
        {
          "codedValue": "__PLACEHOLDER__",
          "decode": "__PLACEHOLDER__"
        }
      ]
    },
    {
      "OID": "CL.EGSTRESC",
      "name": "ECG Result",
      "dataType": "text",
      "standard": "STD.SDTMCT",
      "coding": [
        {
          "code": "C71150",
          "codeSystem": "nci:ExtCodeID"
        }
      ],
      "codeListItems": [
        {
          "codedValue": "__PLACEHOLDER__",
          "decode": "__PLACEHOLDER__"
        }
      ]
    },
    {
      "OID": "CL.EGMETHOD",
      "name": "ECG Test Method",
      "dataType": "text",
      "standard": "STD.SDTMCT",
      "coding": [
        {
          "code": "C71151",
          "codeSystem": "nci:ExtCodeID"
        }
      ],
      "codeListItems": [
        {
          "codedValue": "__PLACEHOLDER__",
          "decode": "__PLACEHOLDER__"
        }
      ]
    },
    {
      "OID": "CL.EVAL",
      "name": "Evaluator",
      "dataType": "text",
      "standard": "STD.SDTMCT",
      "coding": [
        {
          "code": "C78735",
          "codeSystem": "nci:ExtCodeID"
        }
      ],
      "codeListItems": [
        {
          "codedValue": "CAREGIVER",
          "decode": "Caregiver",
          "coding": {
            "code": "C17445",
            "codeSystem": "nci:ExtCodeID"
          }
        }
      ]
    },
    {
      "OID": "CL.FRM",
      "name": "Dosage Form",
      "dataType": "text",
      "standard": "STD.SDTMCT",
      "coding": [
        {
          "code": "C66726",
          "codeSystem": "nci:ExtCodeID"
        }
      ],
      "codeListItems": [
        {
          "codedValue": "__PLACEHOLDER__",
          "decode": "__PLACEHOLDER__"
        }
      ]
    },
    {
      "OID": "CL.ROUTE",
      "name": "Route of Administration Response",
      "dataType": "text",
      "standard": "STD.SDTMCT",
      "coding": [
        {
          "code": "C66729",
          "codeSystem": "nci:ExtCodeID"
        }
      ],
      "codeListItems": [
        {
          "codedValue": "__PLACEHOLDER__",
          "decode": "__PLACEHOLDER__"
        }
      ]
    },
    {
      "OID": "CL.LBTESTCD",
      "name": "Laboratory Test Code",
      "dataType": "text",
      "standard": "STD.SDTMCT",
      "coding": [
        {
          "code": "C65047",
          "codeSystem": "nci:ExtCodeID"
        }
      ],
      "codeListItems": [
        {
          "codedValue": "__PLACEHOLDER__",
          "decode": "__PLACEHOLDER__"
        }
      ]
    },
    {
      "OID": "CL.LBTEST",
      "name": "Laboratory Test Name",
      "dataType": "text",
      "standard": "STD.SDTMCT",
      "coding": [
        {
          "code": "C67154",
          "codeSystem": "nci:ExtCodeID"
        }
      ],
      "codeListItems": [
        {
          "codedValue": "__PLACEHOLDER__",
          "decode": "__PLACEHOLDER__"
        }
      ]
    },
    {
      "OID": "CL.MBTESTCD",
      "name": "Microbiology Test Code",
      "dataType": "text",
      "standard": "STD.SDTMCT",
      "coding": [
        {
          "code": "C120527",
          "codeSystem": "nci:ExtCodeID"
        }
      ],
      "codeListItems": [
        {
          "codedValue": "__PLACEHOLDER__",
          "decode": "__PLACEHOLDER__"
        }
      ]
    },
    {
      "OID": "CL.MBTEST",
      "name": "Microbiology Test Name",
      "dataType": "text",
      "standard": "STD.SDTMCT",
      "coding": [
        {
          "code": "C120528",
          "codeSystem": "nci:ExtCodeID"
        }
      ],
      "codeListItems": [
        {
          "codedValue": "__PLACEHOLDER__",
          "decode": "__PLACEHOLDER__"
        }
      ]
    },
    {
      "OID": "CL.MBFTSDTL",
      "name": "Microbiology Findings Test Details",
      "dataType": "text",
      "standard": "STD.SDTMCT",
      "coding": [
        {
          "code": "C174225",
          "codeSystem": "nci:ExtCodeID"
        }
      ],
      "codeListItems": [
        {
          "codedValue": "DETECTION",
          "decode": "",
          "coding": {
            "code": "C174330",
            "codeSystem": "nci:ExtCodeID"
          }
        }
      ]
    },
    {
      "OID": "CL.SPECTYPE",
      "name": "Specimen Type",
      "dataType": "text",
      "standard": "STD.SDTMCT",
      "coding": [
        {
          "code": "C78734",
          "codeSystem": "nci:ExtCodeID"
        }
      ],
      "codeListItems": [
        {
          "codedValue": "SERUM",
          "decode": "Sera",
          "coding": {
            "code": "C13325",
            "codeSystem": "nci:ExtCodeID"
          }
        }
      ]
    },
    {
      "OID": "CL.METHOD",
      "name": "Method",
      "dataType": "text",
      "standard": "STD.SDTMCT",
      "coding": [
        {
          "code": "C85492",
          "codeSystem": "nci:ExtCodeID"
        }
      ],
      "codeListItems": [
        {
          "codedValue": "LINE PROBE ASSAY",
          "decode": "LiPA",
          "coding": {
            "code": "C102656",
            "codeSystem": "nci:ExtCodeID"
          }
        }
      ]
    },
    {
      "OID": "CL.URNSTSCD",
      "name": "Urinary System Test Code",
      "dataType": "text",
      "standard": "STD.SDTMCT",
      "coding": [
        {
          "code": "C129942",
          "codeSystem": "nci:ExtCodeID"
        }
      ],
      "codeListItems": [
        {
          "codedValue": "__PLACEHOLDER__",
          "decode": "__PLACEHOLDER__"
        }
      ]
    },
    {
      "OID": "CL.URNSTS",
      "name": "Urinary System Test Name",
      "dataType": "text",
      "standard": "STD.SDTMCT",
      "coding": [
        {
          "code": "C129941",
          "codeSystem": "nci:ExtCodeID"
        }
      ],
      "codeListItems": [
        {
          "codedValue": "__PLACEHOLDER__",
          "decode": "__PLACEHOLDER__"
        }
      ]
    },
    {
      "OID": "CL.DIR",
      "name": "Directionality",
      "dataType": "text",
      "standard": "STD.SDTMCT",
      "coding": [
        {
          "code": "C99074",
          "codeSystem": "nci:ExtCodeID"
        }
      ],
      "codeListItems": [
        {
          "codedValue": "__PLACEHOLDER__",
          "decode": "__PLACEHOLDER__"
        }
      ]
    },
    {
      "OID": "CL.QSCAT",
      "name": "Category of Questionnaire",
      "dataType": "text",
      "standard": "STD.SDTMCT",
      "coding": [
        {
          "code": "C100129",
          "codeSystem": "nci:ExtCodeID"
        }
      ],
      "codeListItems": [
        {
          "codedValue": "__PLACEHOLDER__",
          "decode": "__PLACEHOLDER__"
        }
      ]
    },
    {
      "OID": "CL.AESEV",
      "name": "Severity/Intensity Scale for Adverse Events",
      "dataType": "text",
      "standard": "STD.SDTMCT",
      "coding": [
        {
          "code": "C66769",
          "codeSystem": "nci:ExtCodeID"
        }
      ],
      "codeListItems": [
        {
          "codedValue": "__PLACEHOLDER__",
          "decode": "__PLACEHOLDER__"
        }
      ]
    },
    {
      "OID": "CL.ACN",
      "name": "Action Taken with Study Treatment",
      "dataType": "text",
      "standard": "STD.SDTMCT",
      "coding": [
        {
          "code": "C66767",
          "codeSystem": "nci:ExtCodeID"
        }
      ],
      "codeListItems": [
        {
          "codedValue": "__PLACEHOLDER__",
          "decode": "__PLACEHOLDER__"
        }
      ]
    },
    {
      "OID": "CL.OUT",
      "name": "Outcome of Event",
      "dataType": "text",
      "standard": "STD.SDTMCT",
      "coding": [
        {
          "code": "C66768",
          "codeSystem": "nci:ExtCodeID"
        }
      ],
      "codeListItems": [
        {
          "codedValue": "__PLACEHOLDER__",
          "decode": "__PLACEHOLDER__"
        }
      ]
    },
    {
      "OID": "CL.MUSCTSCD",
      "name": "Musculoskeletal System Finding Test Code",
      "dataType": "text",
      "standard": "STD.SDTMCT",
      "coding": [
        {
          "code": "C127269",
          "codeSystem": "nci:ExtCodeID"
        }
      ],
      "codeListItems": [
        {
          "codedValue": "__PLACEHOLDER__",
          "decode": "__PLACEHOLDER__"
        }
      ]
    },
    {
      "OID": "CL.MUSCTS",
      "name": "Musculoskeletal System Finding Test Name",
      "dataType": "text",
      "standard": "STD.SDTMCT",
      "coding": [
        {
          "code": "C127270",
          "codeSystem": "nci:ExtCodeID"
        }
      ],
      "codeListItems": [
        {
          "codedValue": "__PLACEHOLDER__",
          "decode": "__PLACEHOLDER__"
        }
      ]
    },
    {
      "OID": "CL.TSPARMCD",
      "name": "Trial Summary Parameter Test Code",
      "dataType": "text",
      "standard": "STD.SDTMCT",
      "coding": [
        {
          "code": "C66738",
          "codeSystem": "nci:ExtCodeID"
        }
      ],
      "codeListItems": [
        {
          "codedValue": "EGCTMON",
          "decode": "ECG Continuous Monitoring",
          "coding": {
            "code": "C119561",
            "codeSystem": "nci:ExtCodeID"
          }
        }
      ]
    },
    {
      "OID": "CL.TSPARM",
      "name": "Trial Summary Parameter Test Name",
      "dataType": "text",
      "standard": "STD.SDTMCT",
      "coding": [
        {
          "code": "C67152",
          "codeSystem": "nci:ExtCodeID"
        }
      ],
      "codeListItems": [
        {
          "codedValue": "ECG Continuous Monitoring",
          "decode": "ECG Continuous Monitoring",
          "coding": {
            "code": "C119561",
            "codeSystem": "nci:ExtCodeID"
          }
        }
      ]
    },
    {
      "OID": "CL.DICTNAM",
      "name": "Dictionary Name",
      "dataType": "text",
      "standard": "STD.SDTMCT",
      "coding": [
        {
          "code": "C66788",
          "codeSystem": "nci:ExtCodeID"
        }
      ],
      "codeListItems": [
        {
          "codedValue": "__PLACEHOLDER__",
          "decode": "__PLACEHOLDER__"
        }
      ]
    },
    {
      "OID": "CL.FTCAT",
      "name": "Category of Functional Test",
      "dataType": "text",
      "standard": "STD.SDTMCT",
      "coding": [
        {
          "code": "C115304",
          "codeSystem": "nci:ExtCodeID"
        }
      ],
      "codeListItems": [
        {
          "codedValue": "__PLACEHOLDER__",
          "decode": "__PLACEHOLDER__"
        }
      ]
    },
    {
      "OID": "CL.ND",
      "name": "Not Done",
      "dataType": "text",
      "standard": "STD.SDTMCT",
      "coding": [
        {
          "code": "C66789",
          "codeSystem": "nci:ExtCodeID"
        }
      ],
      "codeListItems": [
        {
          "codedValue": "__PLACEHOLDER__",
          "decode": "__PLACEHOLDER__"
        }
      ]
    },
    {
      "OID": "CL.CNTMODE",
      "name": "Mode of Subject Contact",
      "dataType": "text",
      "standard": "STD.SDTMCT",
      "coding": [
        {
          "code": "C171445",
          "codeSystem": "nci:ExtCodeID"
        }
      ],
      "codeListItems": [
        {
          "codedValue": "IN PERSON",
          "decode": "In-Person",
          "coding": {
            "code": "C175574",
            "codeSystem": "nci:ExtCodeID"
          }
        }
      ]
    }
  ],
  "methods": [],
  "comments": [],
  "standards": [
    {
      "OID": "STD.SDTMIG",
      "name": "SDTMIG",
      "type": "IG",
      "version": "3.4",
      "status": "FINAL"
    },
    {
      "OID": "STD.SDTMCT",
      "name": "CDISC/NCI",
      "type": "CT",
      "version": "2026-03-27",
      "status": "FINAL",
      "publishingSet": "SDTM"
    }
  ],
  "annotatedCRF": [],
  "concepts": [
    {
      "OID": "CONC.BiomedicalConcept_1",
      "name": "Informed Consent",
      "label": null,
      "aliases": [
        "Informed Consent Obtained"
      ],
      "href": "/mdr/bc/biomedicalconcepts/C16735",
      "properties": [
        {
          "OID": "CONCPROP.BiomedicalConceptProperty_1",
          "name": "DSDECOD",
          "label": "DSDECOD",
          "mandatory": true,
          "coding": [
            {
              "code": "C82977",
              "codeSystem": "http://www.cdisc.org",
              "codeSystemVersion": "2026-05-26",
              "decode": "Dictionary-derived Term"
            }
          ],
          "codeList": "CL.ad42d7e1"
        },
        {
          "OID": "CONCPROP.BiomedicalConceptProperty_2",
          "name": "DSTERM",
          "label": "DSTERM",
          "mandatory": true,
          "coding": [
            {
              "code": "C82571",
              "codeSystem": "http://www.cdisc.org",
              "codeSystemVersion": "2026-05-26",
              "decode": "Reported Event Term"
            }
          ]
        },
        {
          "OID": "CONCPROP.BiomedicalConceptProperty_3",
          "name": "DSSTDTC",
          "label": "DSSTDTC",
          "mandatory": false,
          "coding": [
            {
              "code": "C82517",
              "codeSystem": "http://www.cdisc.org",
              "codeSystemVersion": "2026-05-26",
              "decode": "Observation Start Date Time"
            }
          ]
        }
      ],
      "coding": [
        {
          "code": "C16735",
          "codeSystem": "http://www.cdisc.org",
          "codeSystemVersion": "2023-12-12",
          "decode": "Informed Consent"
        }
      ]
    },
    {
      "OID": "CONC.BiomedicalConcept_2",
      "name": "Inclusion Criteria",
      "label": "Inclusion Criteria",
      "aliases": [
        "Inclusion"
      ],
      "href": "/mdr/bc/biomedicalconcepts/C25532",
      "properties": [
        {
          "OID": "CONCPROP.BiomedicalConceptProperty_4",
          "name": "TIVERS",
          "label": "TIVERS",
          "mandatory": false,
          "coding": [
            {
              "code": "C83444",
              "codeSystem": "http://www.cdisc.org",
              "codeSystemVersion": "2026-05-26",
              "decode": "Trial Inclusion Exclusion Criteria Version"
            }
          ]
        },
        {
          "OID": "CONCPROP.BiomedicalConceptProperty_5",
          "name": "IEORRES",
          "label": "IEORRES",
          "mandatory": false,
          "coding": [
            {
              "code": "C181043",
              "codeSystem": "http://www.cdisc.org",
              "codeSystemVersion": "2026-05-26",
              "decode": "Clinical Findings Indicator"
            }
          ]
        },
        {
          "OID": "CONCPROP.BiomedicalConceptProperty_6",
          "name": "IEDTC",
          "label": "IEDTC",
          "mandatory": false,
          "coding": [
            {
              "code": "C82515",
              "codeSystem": "http://www.cdisc.org",
              "codeSystemVersion": "2026-05-26",
              "decode": "Collection Date Time"
            }
          ]
        }
      ],
      "coding": [
        {
          "code": "C25532",
          "codeSystem": "http://www.cdisc.org",
          "codeSystemVersion": "2023-12-12",
          "decode": "Inclusion Criteria"
        }
      ]
    },
    {
      "OID": "CONC.BiomedicalConcept_3",
      "name": "Inclusion Exclusion Criteria Yes No Indicator",
      "label": "Inclusion Exclusion Criteria Yes No Indicator",
      "aliases": [
        "Inclusion Exclusion Criteria Yes No Indicator",
        "IEYN"
      ],
      "href": "/mdr/bc/biomedicalconcepts/C83063",
      "properties": [
        {
          "OID": "CONCPROP.BiomedicalConceptProperty_7",
          "name": "Inclusion Exclusion Criteria Yes No Indicator",
          "label": "Inclusion Exclusion Criteria Yes No Indicator",
          "mandatory": true,
          "coding": [
            {
              "code": "C83063",
              "codeSystem": "http://www.cdisc.org",
              "codeSystemVersion": "2025-09-23",
              "decode": "Inclusion Exclusion Criteria Yes No Indicator"
            }
          ]
        },
        {
          "OID": "CONCPROP.BiomedicalConceptProperty_8",
          "name": "Collection Date Time",
          "label": "Collection Date Time",
          "mandatory": true,
          "coding": [
            {
              "code": "C82515",
              "codeSystem": "http://www.cdisc.org",
              "codeSystemVersion": "2025-09-23",
              "decode": "Collection Date Time"
            }
          ]
        }
      ],
      "coding": [
        {
          "code": "C83063",
          "codeSystem": "http://www.cdisc.org",
          "codeSystemVersion": "2025-09-23",
          "decode": "Inclusion Exclusion Criteria Yes No Indicator"
        }
      ]
    },
    {
      "OID": "CONC.BiomedicalConcept_4",
      "name": "Exclusion Criteria",
      "label": "Exclusion Criteria",
      "aliases": [
        "Exclusion"
      ],
      "href": "/mdr/bc/biomedicalconcepts/C25370",
      "properties": [
        {
          "OID": "CONCPROP.BiomedicalConceptProperty_9",
          "name": "TIVERS",
          "label": "TIVERS",
          "mandatory": false,
          "coding": [
            {
              "code": "C83444",
              "codeSystem": "http://www.cdisc.org",
              "codeSystemVersion": "2026-05-26",
              "decode": "Trial Inclusion Exclusion Criteria Version"
            }
          ],
          "codeList": "CL.ad42d7e1"
        },
        {
          "OID": "CONCPROP.BiomedicalConceptProperty_10",
          "name": "IEORRES",
          "label": "IEORRES",
          "mandatory": false,
          "coding": [
            {
              "code": "C181043",
              "codeSystem": "http://www.cdisc.org",
              "codeSystemVersion": "2026-05-26",
              "decode": "Clinical Findings Indicator"
            }
          ]
        },
        {
          "OID": "CONCPROP.BiomedicalConceptProperty_11",
          "name": "IEDTC",
          "label": "IEDTC",
          "mandatory": false,
          "coding": [
            {
              "code": "C82515",
              "codeSystem": "http://www.cdisc.org",
              "codeSystemVersion": "2026-05-26",
              "decode": "Collection Date Time"
            }
          ]
        }
      ],
      "coding": [
        {
          "code": "C25370",
          "codeSystem": "http://www.cdisc.org",
          "codeSystemVersion": "2024-12-16",
          "decode": "Exclusion Criteria"
        }
      ]
    },
    {
      "OID": "CONC.BiomedicalConcept_5",
      "name": "Subject is Randomized",
      "label": "Subject is Randomized",
      "aliases": [
        "Randomized"
      ],
      "href": "/mdr/bc/biomedicalconcepts/C114209",
      "properties": [
        {
          "OID": "CONCPROP.BiomedicalConceptProperty_12",
          "name": "DSDECOD",
          "label": "DSDECOD",
          "mandatory": true,
          "coding": [
            {
              "code": "C82977",
              "codeSystem": "http://www.cdisc.org",
              "codeSystemVersion": "2026-05-26",
              "decode": "Dictionary-derived Term"
            }
          ],
          "codeList": "CL.39e500d6"
        },
        {
          "OID": "CONCPROP.BiomedicalConceptProperty_13",
          "name": "DSTERM",
          "label": "DSTERM",
          "mandatory": true,
          "coding": [
            {
              "code": "C82571",
              "codeSystem": "http://www.cdisc.org",
              "codeSystemVersion": "2026-05-26",
              "decode": "Reported Event Term"
            }
          ]
        },
        {
          "OID": "CONCPROP.BiomedicalConceptProperty_14",
          "name": "DSSTDTC",
          "label": "DSSTDTC",
          "mandatory": false,
          "coding": [
            {
              "code": "C82517",
              "codeSystem": "http://www.cdisc.org",
              "codeSystemVersion": "2026-05-26",
              "decode": "Observation Start Date Time"
            }
          ]
        }
      ],
      "coding": [
        {
          "code": "C114209",
          "codeSystem": "http://www.cdisc.org",
          "codeSystemVersion": "2023-12-12",
          "decode": "Subject is Randomized"
        }
      ]
    },
    {
      "OID": "CONC.BiomedicalConcept_6",
      "name": "Race",
      "label": "Race",
      "aliases": [
        "Racial Group"
      ],
      "href": "/mdr/bc/biomedicalconcepts/C17049",
      "properties": [
        {
          "OID": "CONCPROP.BiomedicalConceptProperty_15",
          "name": "RACE",
          "label": "RACE",
          "mandatory": false,
          "coding": [
            {
              "code": "C17049",
              "codeSystem": "http://www.cdisc.org",
              "codeSystemVersion": "2026-05-26",
              "decode": "Race"
            }
          ]
        },
        {
          "OID": "CONCPROP.BiomedicalConceptProperty_16",
          "name": "DMDTC",
          "label": "DMDTC",
          "mandatory": false,
          "coding": [
            {
              "code": "C82515",
              "codeSystem": "http://www.cdisc.org",
              "codeSystemVersion": "2026-05-26",
              "decode": "Collection Date Time"
            }
          ]
        }
      ],
      "coding": [
        {
          "code": "C17049",
          "codeSystem": "http://www.cdisc.org",
          "codeSystemVersion": "2025-04-01",
          "decode": "Race"
        }
      ]
    },
    {
      "OID": "CONC.BiomedicalConcept_7",
      "name": "Ethnic Group",
      "label": "Ethnic Group",
      "aliases": [
        "Ethnicity",
        "Ethnic Origin"
      ],
      "href": "/mdr/bc/biomedicalconcepts/C16564",
      "properties": [
        {
          "OID": "CONCPROP.BiomedicalConceptProperty_17",
          "name": "ETHNIC",
          "label": "ETHNIC",
          "mandatory": false,
          "coding": [
            {
              "code": "C16564",
              "codeSystem": "http://www.cdisc.org",
              "codeSystemVersion": "2026-05-26",
              "decode": "Ethnic Group"
            }
          ]
        },
        {
          "OID": "CONCPROP.BiomedicalConceptProperty_18",
          "name": "DMDTC",
          "label": "DMDTC",
          "mandatory": false,
          "coding": [
            {
              "code": "C82515",
              "codeSystem": "http://www.cdisc.org",
              "codeSystemVersion": "2026-05-26",
              "decode": "Collection Date Time"
            }
          ]
        }
      ],
      "coding": [
        {
          "code": "C16564",
          "codeSystem": "http://www.cdisc.org",
          "codeSystemVersion": "2025-04-01",
          "decode": "Ethnic Group"
        }
      ]
    },
    {
      "OID": "CONC.BiomedicalConcept_8",
      "name": "Subject Age",
      "label": "Subject Age",
      "aliases": [
        "Age"
      ],
      "href": "/mdr/bc/biomedicalconcepts/C69260",
      "properties": [
        {
          "OID": "CONCPROP.BiomedicalConceptProperty_19",
          "name": "AGE",
          "label": "AGE",
          "mandatory": false,
          "coding": [
            {
              "code": "C170981",
              "codeSystem": "http://www.cdisc.org",
              "codeSystemVersion": "2025-07-01",
              "decode": "Numeric Age for Data Tabulation"
            }
          ]
        },
        {
          "OID": "CONCPROP.BiomedicalConceptProperty_20",
          "name": "AGEU",
          "label": "AGEU",
          "mandatory": false,
          "coding": [
            {
              "code": "C50400",
              "codeSystem": "http://www.cdisc.org",
              "codeSystemVersion": "2025-07-01",
              "decode": "Age Unit"
            }
          ]
        },
        {
          "OID": "CONCPROP.BiomedicalConceptProperty_21",
          "name": "DMDTC",
          "label": "DMDTC",
          "mandatory": false,
          "coding": [
            {
              "code": "C82515",
              "codeSystem": "http://www.cdisc.org",
              "codeSystemVersion": "2025-07-01",
              "decode": "Collection Date Time"
            }
          ]
        }
      ],
      "coding": [
        {
          "code": "C69260",
          "codeSystem": "http://www.cdisc.org",
          "codeSystemVersion": "2025-04-01",
          "decode": "Subject Age"
        }
      ]
    },
    {
      "OID": "CONC.BiomedicalConcept_9",
      "name": "Birth Date and Time",
      "label": "Birth Date and Time",
      "aliases": [
        "BRTHDTC",
        "Date/Time of Birth"
      ],
      "href": "/mdr/bc/biomedicalconcepts/C83217",
      "properties": [
        {
          "OID": "CONCPROP.BiomedicalConceptProperty_22",
          "name": "BRTHDTC",
          "label": "BRTHDTC",
          "mandatory": false,
          "coding": [
            {
              "code": "C82515",
              "codeSystem": "http://www.cdisc.org",
              "codeSystemVersion": "2025-07-01",
              "decode": "Collection Date Time"
            }
          ]
        },
        {
          "OID": "CONCPROP.BiomedicalConceptProperty_23",
          "name": "DMDTC",
          "label": "DMDTC",
          "mandatory": false,
          "coding": [
            {
              "code": "C82515",
              "codeSystem": "http://www.cdisc.org",
              "codeSystemVersion": "2025-07-01",
              "decode": "Collection Date Time"
            }
          ]
        }
      ],
      "coding": [
        {
          "code": "C83217",
          "codeSystem": "http://www.cdisc.org",
          "codeSystemVersion": "2025-07-01",
          "decode": "Birth Date and Time"
        }
      ]
    },
    {
      "OID": "CONC.BiomedicalConcept_10",
      "name": "Sex",
      "label": null,
      "aliases": null,
      "href": "/mdr/bc/biomedicalconcepts/C28421",
      "properties": [
        {
          "OID": "CONCPROP.BiomedicalConceptProperty_24",
          "name": "SEX",
          "label": "SEX",
          "mandatory": false,
          "coding": [
            {
              "code": "C28421",
              "codeSystem": "http://www.cdisc.org",
              "codeSystemVersion": "2025-04-01",
              "decode": "Sex"
            }
          ]
        },
        {
          "OID": "CONCPROP.BiomedicalConceptProperty_25",
          "name": "DMDTC",
          "label": "DMDTC",
          "mandatory": false,
          "coding": [
            {
              "code": "C82515",
              "codeSystem": "http://www.cdisc.org",
              "codeSystemVersion": "2025-04-01",
              "decode": "Collection Date Time"
            }
          ]
        }
      ],
      "coding": [
        {
          "code": "C28421",
          "codeSystem": "http://www.cdisc.org",
